Absorbance:209		
187.658	0.37	
188.124	0.37	
188.589	0.37	
189.055	-0	
189.521	-0.93	
189.987	-0	
190.452	-0	
190.918	-0.11	
191.384	-0.39	
191.849	-0	
192.314	-0	
192.78	-0	
193.245	-0	
193.711	-0	
194.176	-0.99	
194.641	-0	
195.106	-0.26	
195.571	0.04	
196.037	0.55	
196.502	0.21	
196.967	-0.75	
197.431	0.01	
197.896	-0	
198.361	1.73	
198.826	1.54	
199.291	1.54	
199.755	1.58	
200.22	1.53	
200.685	1.55	
201.149	1.51	
201.614	1.55	
202.078	1.57	
202.543	1.57	
203.007	1.55	
203.471	1.59	
203.936	1.58	
204.4	1.6	
204.864	1.59	
205.328	1.6	
205.792	1.63	
206.256	1.62	
206.72	1.63	
207.184	1.65	
207.648	1.67	
208.112	1.65	
208.576	1.61	
209.039	1.68	
209.503	1.64	
209.967	1.64	
210.43	1.63	
210.894	1.65	
211.357	1.63	
211.821	1.63	
212.284	1.61	
212.747	1.64	
213.211	1.59	
213.674	1.59	
214.137	1.61	
214.6	1.59	
215.063	1.56	
215.526	1.52	
215.989	1.52	
216.452	1.51	
216.915	1.5	
217.378	1.46	
217.841	1.41	
218.304	1.39	
218.767	1.34	
219.229	1.3	
219.692	1.25	
220.154	1.19	
220.617	1.14	
221.079	1.1	
221.542	1.05	
222.004	0.98	
222.467	0.94	
222.929	0.9	
223.391	0.85	
223.853	0.8	
224.315	0.77	
224.777	0.72	
225.239	0.71	
225.701	0.67	
226.163	0.64	
226.625	0.61	
227.087	0.59	
227.549	0.56	
228.011	0.53	
228.472	0.51	
228.934	0.5	
229.396	0.48	
229.857	0.48	
230.319	0.46	
230.78	0.44	
231.242	0.45	
231.703	0.43	
232.164	0.41	
232.626	0.41	
233.087	0.4	
233.548	0.4	
234.009	0.41	
234.47	0.4	
234.931	0.38	
235.392	0.38	
235.853	0.38	
236.314	0.38	
236.775	0.37	
237.235	0.36	
237.696	0.36	
238.157	0.36	
238.618	0.36	
239.078	0.35	
239.539	0.35	
239.999	0.35	
240.46	0.34	
240.92	0.34	
241.38	0.32	
241.841	0.33	
242.301	0.32	
242.761	0.32	
243.221	0.31	
243.681	0.31	
244.141	0.31	
244.601	0.3	
245.061	0.29	
245.521	0.3	
245.981	0.28	
246.441	0.28	
246.901	0.28	
247.36	0.27	
247.82	0.27	
248.28	0.26	
248.739	0.25	
249.199	0.25	
249.658	0.25	
250.117	0.23	
250.577	0.22	
251.036	0.22	
251.495	0.21	
251.955	0.22	
252.414	0.21	
252.873	0.19	
253.332	0.2	
253.791	0.19	
254.25	0.18	
254.709	0.16	
255.168	0.16	
255.627	0.16	
256.085	0.15	
256.544	0.14	
257.003	0.14	
257.461	0.14	
257.92	0.13	
258.379	0.13	
258.837	0.13	
259.295	0.13	
259.754	0.12	
260.212	0.11	
260.67	0.1	
261.129	0.1	
261.587	0.1	
262.045	0.09	
262.503	0.09	
262.961	0.09	
263.419	0.08	
263.877	0.08	
264.335	0.07	
264.793	0.08	
265.251	0.07	
265.708	0.07	
266.166	0.07	
266.624	0.07	
267.081	0.06	
267.539	0.06	
267.996	0.06	
268.454	0.06	
268.911	0.06	
269.369	0.06	
269.826	0.05	
270.283	0.06	
270.74	0.06	
271.198	0.06	
271.655	0.05	
272.112	0.05	
272.569	0.05	
273.026	0.05	
273.483	0.05	
273.94	0.05	
274.396	0.05	
274.853	0.05	
275.31	0.05	
275.767	0.05	
276.223	0.05	
276.68	0.05	
277.136	0.05	
277.593	0.05	
278.049	0.05	
278.506	0.05	
278.962	0.04	
279.418	0.04	
279.874	0.04	
280.331	0.04	
280.787	0.04	
281.243	0.04	
281.699	0.04	
282.155	0.04	
282.611	0.04	
283.067	0.04	
283.522	0.04	
283.978	0.04	
284.434	0.04	
284.89	0.04	
285.345	0.03	
285.801	0.04	
286.256	0.04	
286.712	0.04	
287.167	0.03	
287.623	0.04	
288.078	0.03	
288.533	0.03	
288.989	0.03	
289.444	0.04	
289.899	0.04	
290.354	0.03	
290.809	0.03	
291.264	0.04	
291.719	0.03	
292.174	0.04	
292.629	0.04	
293.084	0.04	
293.538	0.03	
293.993	0.04	
294.448	0.04	
294.902	0.04	
295.357	0.04	
295.811	0.04	
296.266	0.04	
296.72	0.04	
297.174	0.04	
297.629	0.05	
298.083	0.04	
298.537	0.04	
298.991	0.05	
299.446	0.05	
299.9	0.05	
300.354	0.05	
300.808	0.05	
301.261	0.05	
301.715	0.05	
302.169	0.05	
302.623	0.05	
303.077	0.05	
303.53	0.05	
303.984	0.05	
304.437	0.04	
304.891	0.05	
305.344	0.04	
305.798	0.04	
306.251	0.04	
306.704	0.04	
307.158	0.05	
307.611	0.05	
308.064	0.05	
308.517	0.05	
308.97	0.05	
309.423	0.05	
309.876	0.05	
310.329	0.05	
310.782	0.06	
311.235	0.05	
311.688	0.05	
312.14	0.05	
312.593	0.04	
313.046	0.05	
313.498	0.05	
313.951	0.04	
314.403	0.05	
314.856	0.04	
315.308	0.05	
315.76	0.05	
316.213	0.05	
316.665	0.05	
317.117	0.05	
317.569	0.05	
318.021	0.06	
318.473	0.05	
318.925	0.05	
319.377	0.05	
319.829	0.05	
320.281	0.05	
320.733	0.06	
321.184	0.06	
321.636	0.06	
322.088	0.06	
322.539	0.07	
322.991	0.07	
323.442	0.07	
323.894	0.07	
324.345	0.08	
324.796	0.07	
325.248	0.07	
325.699	0.08	
326.15	0.07	
326.601	0.07	
327.052	0.07	
327.503	0.07	
327.954	0.06	
328.405	0.06	
328.856	0.06	
329.307	0.06	
329.758	0.06	
330.208	0.06	
330.659	0.05	
331.11	0.05	
331.56	0.06	
332.011	0.05	
332.461	0.05	
332.912	0.05	
333.362	0.06	
333.813	0.06	
334.263	0.06	
334.713	0.06	
335.163	0.06	
335.613	0.07	
336.063	0.06	
336.513	0.07	
336.963	0.07	
337.413	0.07	
337.863	0.08	
338.313	0.08	
338.763	0.08	
339.213	0.09	
339.662	0.08	
340.112	0.08	
340.562	0.08	
341.011	0.09	
341.461	0.09	
341.91	0.08	
342.359	0.09	
342.809	0.09	
343.258	0.09	
343.707	0.1	
344.156	0.09	
344.606	0.1	
345.055	0.09	
345.504	0.1	
345.953	0.1	
346.402	0.1	
346.85	0.1	
347.299	0.1	
347.748	0.1	
348.197	0.11	
348.645	0.1	
349.094	0.11	
349.543	0.11	
349.991	0.11	
350.44	0.11	
350.888	0.12	
351.336	0.12	
351.785	0.12	
352.233	0.11	
352.681	0.12	
353.13	0.12	
353.578	0.12	
354.026	0.12	
354.474	0.12	
354.922	0.12	
355.37	0.12	
355.818	0.13	
356.265	0.13	
356.713	0.14	
357.161	0.13	
357.609	0.14	
358.056	0.14	
358.504	0.14	
358.951	0.14	
359.399	0.14	
359.846	0.14	
360.294	0.14	
360.741	0.14	
361.188	0.15	
361.635	0.15	
362.083	0.15	
362.53	0.15	
362.977	0.15	
363.424	0.15	
363.871	0.15	
364.318	0.15	
364.765	0.15	
365.211	0.15	
365.658	0.16	
366.105	0.15	
366.552	0.16	
366.998	0.16	
367.445	0.15	
367.891	0.16	
368.338	0.15	
368.784	0.15	
369.231	0.15	
369.677	0.15	
370.123	0.16	
370.569	0.16	
371.016	0.16	
371.462	0.16	
371.908	0.17	
372.354	0.17	
372.8	0.17	
373.246	0.17	
373.692	0.17	
374.137	0.17	
374.583	0.17	
375.029	0.17	
375.475	0.18	
375.92	0.18	
376.366	0.18	
376.811	0.17	
377.257	0.17	
377.702	0.17	
378.147	0.17	
378.593	0.17	
379.038	0.16	
379.483	0.16	
379.928	0.15	
380.374	0.15	
380.819	0.15	
381.264	0.15	
381.709	0.15	
382.153	0.16	
382.598	0.16	
383.043	0.17	
383.488	0.17	
383.933	0.17	
384.377	0.17	
384.822	0.17	
385.266	0.18	
385.711	0.18	
386.155	0.19	
386.6	0.19	
387.044	0.18	
387.488	0.19	
387.933	0.19	
388.377	0.19	
388.821	0.19	
389.265	0.18	
389.709	0.18	
390.153	0.18	
390.597	0.18	
391.041	0.2	
391.485	0.19	
391.929	0.2	
392.372	0.2	
392.816	0.19	
393.26	0.18	
393.703	0.18	
394.147	0.17	
394.59	0.16	
395.034	0.16	
395.477	0.18	
395.921	0.19	
396.364	0.2	
396.807	0.21	
397.25	0.2	
397.693	0.21	
398.137	0.21	
398.58	0.2	
399.023	0.19	
399.466	0.19	
399.908	0.18	
400.351	0.17	
400.794	0.17	
401.237	0.19	
401.679	0.19	
402.122	0.2	
402.565	0.21	
403.007	0.21	
403.45	0.22	
403.892	0.22	
404.334	0.21	
404.777	0.22	
405.219	0.22	
405.661	0.22	
406.103	0.22	
406.546	0.22	
406.988	0.22	
407.43	0.22	
407.872	0.22	
408.314	0.22	
408.755	0.23	
409.197	0.22	
409.639	0.23	
410.081	0.23	
410.522	0.23	
410.964	0.23	
411.406	0.23	
411.847	0.23	
412.289	0.23	
412.73	0.23	
413.171	0.23	
413.613	0.23	
414.054	0.23	
414.495	0.23	
414.936	0.23	
415.377	0.23	
415.818	0.23	
416.259	0.24	
416.7	0.24	
417.141	0.24	
417.582	0.24	
418.023	0.23	
418.464	0.24	
418.904	0.23	
419.345	0.24	
419.786	0.24	
420.226	0.24	
420.667	0.24	
421.107	0.23	
421.547	0.24	
421.988	0.23	
422.428	0.22	
422.868	0.22	
423.308	0.21	
423.749	0.21	
424.189	0.22	
424.629	0.22	
425.069	0.23	
425.509	0.23	
425.949	0.23	
426.388	0.23	
426.828	0.23	
427.268	0.24	
427.708	0.24	
428.147	0.24	
428.587	0.24	
429.026	0.25	
429.466	0.24	
429.905	0.24	
430.344	0.24	
430.784	0.23	
431.223	0.22	
431.662	0.21	
432.101	0.21	
432.541	0.21	
432.98	0.21	
433.419	0.23	
433.858	0.23	
434.296	0.24	
434.735	0.24	
435.174	0.25	
435.613	0.25	
436.052	0.24	
436.49	0.24	
436.929	0.24	
437.367	0.24	
437.806	0.24	
438.244	0.23	
438.683	0.23	
439.121	0.24	
439.559	0.24	
439.998	0.24	
440.436	0.24	
440.874	0.25	
441.312	0.25	
441.75	0.25	
442.188	0.25	
442.626	0.24	
443.064	0.25	
443.502	0.24	
443.939	0.24	
444.377	0.23	
444.815	0.24	
445.253	0.24	
445.69	0.22	
446.128	0.24	
446.565	0.23	
447.002	0.23	
447.44	0.24	
447.877	0.23	
448.314	0.22	
448.752	0.22	
449.189	0.23	
449.626	0.23	
450.063	0.23	
450.5	0.23	
450.937	0.23	
451.374	0.23	
451.811	0.23	
452.248	0.23	
452.684	0.24	
453.121	0.24	
453.558	0.24	
453.994	0.24	
454.431	0.24	
454.867	0.25	
455.304	0.25	
455.74	0.24	
456.176	0.24	
456.613	0.25	
457.049	0.25	
457.485	0.25	
457.921	0.25	
458.357	0.24	
458.793	0.24	
459.229	0.24	
459.665	0.24	
460.101	0.24	
460.537	0.24	
460.973	0.25	
461.408	0.24	
461.844	0.23	
462.28	0.24	
462.715	0.23	
463.151	0.24	
463.586	0.24	
464.022	0.24	
464.457	0.24	
464.892	0.24	
465.328	0.24	
465.763	0.24	
466.198	0.24	
466.633	0.23	
467.068	0.23	
467.503	0.22	
467.938	0.22	
468.373	0.22	
468.808	0.23	
469.243	0.24	
469.677	0.23	
470.112	0.23	
470.547	0.24	
470.981	0.24	
471.416	0.24	
471.85	0.25	
472.285	0.24	
472.719	0.24	
473.153	0.25	
473.588	0.25	
474.022	0.23	
474.456	0.24	
474.89	0.22	
475.324	0.23	
475.758	0.22	
476.192	0.22	
476.626	0.21	
477.06	0.21	
477.494	0.2	
477.928	0.21	
478.361	0.21	
478.795	0.2	
479.229	0.2	
479.662	0.2	
480.096	0.2	
480.529	0.2	
480.962	0.2	
481.396	0.19	
481.829	0.19	
482.262	0.18	
482.695	0.17	
483.129	0.16	
483.562	0.16	
483.995	0.15	
484.428	0.15	
484.861	0.15	
485.294	0.14	
485.726	0.14	
486.159	0.12	
486.592	0.11	
487.024	0.09	
487.457	0.08	
487.89	0.07	
488.322	0.07	
488.755	0.08	
489.187	0.09	
489.619	0.1	
490.052	0.11	
490.484	0.12	
490.916	0.13	
491.348	0.13	
491.78	0.13	
492.212	0.13	
492.644	0.14	
493.076	0.14	
493.508	0.13	
493.94	0.13	
494.372	0.13	
494.804	0.13	
495.235	0.13	
495.667	0.12	
496.098	0.12	
496.53	0.12	
496.961	0.11	
497.393	0.1	
497.824	0.09	
498.256	0.09	
498.687	0.09	
499.118	0.1	
499.549	0.1	
499.98	0.11	
500.411	0.11	
500.842	0.12	
501.273	0.12	
501.704	0.12	
502.135	0.12	
502.566	0.11	
502.997	0.1	
503.427	0.1	
503.858	0.09	
504.289	0.09	
504.719	0.09	
505.15	0.09	
505.58	0.08	
506.01	0.09	
506.441	0.09	
506.871	0.09	
507.301	0.09	
507.731	0.1	
508.161	0.1	
508.592	0.1	
509.022	0.1	
509.451	0.11	
509.881	0.1	
510.311	0.1	
510.741	0.1	
511.171	0.1	
511.6	0.1	
512.03	0.1	
512.46	0.1	
512.889	0.1	
513.319	0.1	
513.748	0.1	
514.178	0.1	
514.607	0.1	
515.036	0.1	
515.465	0.1	
515.895	0.11	
516.324	0.12	
516.753	0.12	
517.182	0.12	
517.611	0.12	
518.04	0.12	
518.469	0.11	
518.897	0.12	
519.326	0.11	
519.755	0.11	
520.183	0.12	
520.612	0.11	
521.041	0.11	
521.469	0.12	
521.898	0.12	
522.326	0.12	
522.754	0.12	
523.183	0.12	
523.611	0.13	
524.039	0.13	
524.467	0.13	
524.895	0.13	
525.323	0.13	
525.751	0.13	
526.179	0.12	
526.607	0.13	
527.035	0.13	
527.463	0.13	
527.89	0.13	
528.318	0.13	
528.745	0.13	
529.173	0.12	
529.601	0.12	
530.028	0.13	
530.455	0.12	
530.883	0.11	
531.31	0.12	
531.737	0.12	
532.164	0.12	
532.592	0.12	
533.019	0.12	
533.446	0.12	
533.873	0.12	
534.3	0.12	
534.726	0.11	
535.153	0.11	
535.58	0.11	
536.007	0.1	
536.433	0.1	
536.86	0.1	
537.287	0.09	
537.713	0.1	
538.139	0.1	
538.566	0.1	
538.992	0.1	
539.418	0.09	
539.845	0.09	
540.271	0.09	
540.697	0.08	
541.123	0.08	
541.549	0.08	
541.975	0.08	
542.401	0.08	
542.827	0.08	
543.253	0.08	
543.678	0.08	
544.104	0.08	
544.53	0.08	
544.955	0.08	
545.381	0.08	
545.806	0.08	
546.232	0.07	
546.657	0.07	
547.083	0.07	
547.508	0.07	
547.933	0.06	
548.358	0.06	
548.783	0.06	
549.209	0.05	
549.634	0.06	
550.059	0.06	
550.483	0.06	
550.908	0.06	
551.333	0.07	
551.758	0.07	
552.183	0.07	
552.607	0.07	
553.032	0.07	
553.456	0.06	
553.881	0.06	
554.305	0.05	
554.73	0.05	
555.154	0.05	
555.578	0.05	
556.003	0.05	
556.427	0.05	
556.851	0.05	
557.275	0.05	
557.699	0.05	
558.123	0.05	
558.547	0.06	
558.971	0.06	
559.395	0.07	
559.818	0.07	
560.242	0.07	
560.666	0.07	
561.089	0.06	
561.513	0.06	
561.936	0.05	
562.36	0.04	
562.783	0.04	
563.206	0.03	
563.63	0.03	
564.053	0.03	
564.476	0.03	
564.899	0.04	
565.322	0.04	
565.745	0.04	
566.168	0.04	
566.591	0.04	
567.014	0.04	
567.437	0.05	
567.86	0.05	
568.282	0.04	
568.705	0.04	
569.128	0.03	
569.55	0.03	
569.973	0.02	
570.395	0.01	
570.817	0	
571.24	-0	
571.662	-0	
572.084	-0	
572.506	-0	
572.928	-0	
573.35	-0	
573.772	-0	
574.194	-0	
574.616	-0	
575.038	-0	
575.46	-0	
575.882	-0	
576.303	-0	
576.725	-0	
577.147	-0	
577.568	-0	
577.99	-0	
578.411	-0	
578.832	-0	
579.254	-0	
579.675	-0	
580.096	-0	
580.517	-0	
580.938	-0	
581.36	-0	
581.781	-0	
582.201	-0	
582.622	-0	
583.043	-0	
583.464	-0	
583.885	-0	
584.305	-0	
584.726	-0	
585.147	-0	
585.567	-0	
585.988	-0	
586.408	-0	
586.828	-0	
587.249	-0	
587.669	-0	
588.089	-0	
588.509	-0	
588.929	-0	
589.349	-0	
589.769	-0	
590.189	-0	
590.609	-0	
591.029	-0	
591.449	-0	
591.868	-0	
592.288	-0	
592.708	-0	
593.127	-0	
593.547	-0	
593.966	-0	
594.386	-0	
594.805	-0	
595.224	-0	
595.643	-0	
596.063	-0	
596.482	-0	
596.901	-0	
597.32	-0	
597.739	-0	
598.158	-0	
598.577	-0	
598.995	-0	
599.414	-0	
599.833	-0	
600.252	-0	
600.67	-0	
601.089	-0	
601.507	-0	
601.926	-0	
602.344	-0	
602.762	-0	
603.181	-0	
603.599	-0	
604.017	-0	
604.435	-0	
604.853	-0	
605.271	-0	
605.689	-0	
606.107	-0	
606.525	-0	
606.943	-0	
607.36	-0	
607.778	-0	
608.196	-0	
608.613	-0	
609.031	-0	
609.448	-0	
609.866	-0	
610.283	-0	
610.7	-0	
611.118	-0	
611.535	-0	
611.952	-0	
612.369	-0	
612.786	-0	
613.203	-0	
613.62	-0	
614.037	-0	
614.454	-0	
614.87	-0	
615.287	-0	
615.704	-0	
616.12	-0	
616.537	-0	
616.953	-0	
617.37	-0	
617.786	-0	
618.203	-0	
618.619	-0	
619.035	-0	
619.451	-0	
619.868	-0	
620.284	-0	
620.7	-0	
621.116	-0	
621.531	-0	
621.947	-0	
622.363	-0	
622.779	-0	
623.195	-0	
623.61	-0	
624.026	-0	
624.441	-0	
624.857	-0	
625.272	-0	
625.688	-0	
626.103	-0	
626.518	-0	
626.933	-0	
627.349	0	
627.764	0	
628.179	0	
628.594	0	
629.009	0	
629.424	0	
629.838	0	
630.253	0	
630.668	0.01	
631.083	0.01	
631.497	0.01	
631.912	0.01	
632.326	0.01	
632.741	0.01	
633.155	0.01	
633.57	0.02	
633.984	0.02	
634.398	0.02	
634.812	0.02	
635.226	0.02	
635.64	0.02	
636.054	0.02	
636.468	0.02	
636.882	0.02	
637.296	0.02	
637.71	0.02	
638.124	0.02	
638.537	0.02	
638.951	0.02	
639.365	0.02	
639.778	0.02	
640.192	0.02	
640.605	0.02	
641.019	0.02	
641.432	0.02	
641.845	0.02	
642.258	0.02	
642.672	0.02	
643.085	0.02	
643.498	0.02	
643.911	0.02	
644.324	0.03	
644.737	0.02	
645.149	0.02	
645.562	0.02	
645.975	0.02	
646.388	0.02	
646.8	0.03	
647.213	0.02	
647.625	0.02	
648.038	0.02	
648.45	0.02	
648.862	0.02	
649.275	0.02	
649.687	0.02	
650.099	0.01	
650.511	0.01	
650.923	0.01	
651.335	0.01	
651.747	0.01	
652.159	0.01	
652.571	0.01	
652.983	0.01	
653.395	0.01	
653.806	0.01	
654.218	0.01	
654.63	0.01	
655.041	0.01	
655.453	0.01	
655.864	0.01	
656.275	-0	
656.687	-0	
657.098	-0	
657.509	-0	
657.92	-0	
658.332	-0	
658.743	-0	
659.154	-0	
659.565	-0	
659.975	-0	
660.386	0.01	
660.797	0.01	
661.208	0.01	
661.618	0.01	
662.029	0.01	
662.44	0.02	
662.85	0.02	
663.261	0.01	
663.671	0.02	
664.081	0.02	
664.492	0.02	
664.902	0.02	
665.312	0.02	
665.722	0.02	
666.132	0.01	
666.542	0.01	
666.952	0.01	
667.362	0.01	
667.772	0.01	
668.182	0.02	
668.591	0.02	
669.001	0.02	
669.411	0.02	
669.82	0.02	
670.23	0.02	
670.639	0.02	
671.049	0.01	
671.458	0.01	
671.867	0.01	
672.277	0.01	
672.686	0.01	
673.095	0.01	
673.504	0	
673.913	0.01	
674.322	0.01	
674.731	0.01	
675.14	0.01	
675.549	0.01	
675.957	0.01	
676.366	0.02	
676.775	0.01	
677.183	0.01	
677.592	0.01	
678	0.01	
678.409	0.01	
678.817	0.01	
679.226	0.01	
679.634	0.01	
680.042	0.01	
680.45	0.01	
680.858	0.01	
681.266	0.01	
681.674	0.01	
682.082	0.01	
682.49	0.01	
682.898	0.01	
683.306	0.01	
683.714	0.01	
684.121	0.01	
684.529	0.01	
684.936	0.01	
685.344	0.01	
685.751	0.01	
686.159	0.01	
686.566	0	
686.973	0	
687.381	0	
687.788	0.01	
688.195	0.01	
688.602	0.01	
689.009	0.01	
689.416	0.01	
689.823	0.01	
690.23	0.01	
690.636	0.01	
691.043	0.01	
691.45	0.01	
691.857	0.01	
692.263	0.01	
692.67	0.01	
693.076	0.01	
693.483	0.01	
693.889	0.01	
694.295	0.01	
694.701	0.01	
695.108	0.01	
695.514	0.01	
695.92	0.02	
696.326	0.01	
696.732	0.02	
697.138	0.02	
697.544	0.01	
697.949	0.01	
698.355	0.01	
698.761	0	
699.167	0.01	
699.572	0.01	
699.978	0.01	
700.383	0.01	
700.789	0.01	
701.194	0.02	
701.599	0.02	
702.004	0.02	
702.41	0.02	
702.815	0.02	
703.22	0.02	
703.625	0.02	
704.03	0.02	
704.435	0.01	
704.84	0.01	
705.245	0.02	
705.649	0.02	
706.054	0.02	
706.459	0.02	
706.863	0.02	
707.268	0.02	
707.672	0.02	
708.077	0.02	
708.481	0.01	
708.885	0.01	
709.29	0.01	
709.694	0.01	
710.098	0.01	
710.502	0.01	
710.906	0.01	
711.31	0.02	
711.714	0.02	
712.118	0.02	
712.522	0.02	
712.926	0.02	
713.329	0.02	
713.733	0.02	
714.137	0.02	
714.54	0.01	
714.944	0.01	
715.347	0.01	
715.75	0.01	
716.154	0.01	
716.557	0.01	
716.96	0.01	
717.363	0.02	
717.767	0.02	
718.17	0.02	
718.573	0.02	
718.976	0.02	
719.378	0.02	
719.781	0.01	
720.184	0.02	
720.587	0.01	
720.989	0.01	
721.392	0.02	
721.795	0.02	
722.197	0.02	
722.6	0.02	
723.002	0.02	
723.404	0.02	
723.807	0.02	
724.209	0.02	
724.611	0.02	
725.013	0.02	
725.415	0.02	
725.817	0.02	
726.219	0.02	
726.621	0.02	
727.023	0.02	
727.425	0.02	
727.826	0.02	
728.228	0.02	
728.63	0.02	
729.031	0.02	
729.433	0.02	
729.834	0.02	
730.236	0.02	
730.637	0.02	
731.038	0.02	
731.44	0.02	
731.841	0.02	
732.242	0.01	
732.643	0.01	
733.044	0.01	
733.445	0.01	
733.846	0.01	
734.247	0.01	
734.647	0.01	
735.048	0.01	
735.449	0.01	
735.849	0.01	
736.25	0.01	
736.65	0.01	
737.051	0.01	
737.451	0.01	
737.852	0.02	
738.252	0.02	
738.652	0.02	
739.052	0.02	
739.453	0.02	
739.853	0.02	
740.253	0.02	
740.653	0.02	
741.052	0.02	
741.452	0.02	
741.852	0.02	
742.252	0.03	
742.651	0.03	
743.051	0.03	
743.451	0.03	
743.85	0.04	
744.25	0.04	
744.649	0.03	
745.048	0.04	
745.448	0.04	
745.847	0.04	
746.246	0.05	
746.645	0.05	
747.044	0.05	
747.443	0.05	
747.842	0.05	
748.241	0.05	
748.64	0.05	
749.039	0.05	
749.438	0.05	
749.836	0.05	
750.235	0.05	
750.633	0.04	
751.032	0.04	
751.43	0.04	
751.829	0.04	
752.227	0.04	
752.625	0.03	
753.024	0.03	
753.422	0.03	
753.82	0.03	
754.218	0.03	
754.616	0.03	
755.014	0.02	
755.412	0.02	
755.81	0.02	
756.208	0.02	
756.605	0.02	
757.003	0.02	
757.401	0.02	
757.798	0.02	
758.196	0.01	
758.593	0.01	
758.99	0.01	
759.388	0.01	
759.785	0.01	
760.182	0.01	
760.58	0.02	
760.977	0.02	
761.374	0.03	
761.771	0.02	
762.168	0.02	
762.565	0.02	
762.961	0.02	
763.358	0.03	
763.755	0.03	
764.152	0.03	
764.548	0.04	
764.945	0.03	
765.341	0.03	
765.738	0.03	
766.134	0.03	
766.53	0.03	
766.927	0.03	
767.323	0.04	
767.719	0.04	
768.115	0.05	
768.511	0.05	
768.907	0.05	
769.303	0.05	
769.699	0.05	
770.095	0.05	
770.491	0.05	
770.886	0.05	
771.282	0.06	
771.678	0.06	
772.073	0.06	
772.469	0.06	
772.864	0.06	
773.26	0.07	
773.655	0.07	
774.05	0.07	
774.445	0.07	
774.841	0.07	
775.236	0.07	
775.631	0.08	
776.026	0.08	
776.421	0.08	
776.816	0.08	
777.21	0.08	
777.605	0.08	
778	0.08	
778.395	0.09	
778.789	0.08	
779.184	0.08	
779.578	0.09	
779.973	0.09	
780.367	0.09	
780.761	0.09	
781.156	0.09	
781.55	0.09	
781.944	0.09	
782.338	0.08	
782.732	0.08	
783.126	0.08	
783.52	0.08	
783.914	0.08	
784.308	0.09	
784.701	0.09	
785.095	0.09	
785.489	0.09	
785.882	0.09	
786.276	0.09	
786.669	0.09	
787.063	0.09	
787.456	0.09	
787.85	0.09	
788.243	0.09	
788.636	0.1	
789.029	0.1	
789.422	0.1	
789.815	0.09	
790.208	0.09	
790.601	0.1	
790.994	0.1	
791.387	0.1	
791.78	0.1	
792.172	0.11	
792.565	0.11	
792.957	0.11	
793.35	0.11	
793.742	0.1	
794.135	0.11	
794.527	0.11	
794.919	0.1	
795.312	0.09	
795.704	0.09	
796.096	0.09	
796.488	0.09	
796.88	0.1	
797.272	0.11	
797.664	0.12	
798.056	0.13	
798.448	0.13	
798.839	0.13	
799.231	0.13	
799.623	0.13	
800.014	0.13	
800.406	0.13	
800.797	0.14	
801.189	0.14	
801.58	0.14	
801.971	0.15	
802.362	0.15	
802.754	0.15	
803.145	0.15	
803.536	0.15	
803.927	0.15	
804.318	0.15	
804.709	0.15	
805.099	0.15	
805.49	0.15	
805.881	0.16	
806.272	0.16	
806.662	0.15	
807.053	0.16	
807.443	0.15	
807.834	0.15	
808.224	0.15	
808.614	0.15	
809.005	0.15	
809.395	0.15	
809.785	0.16	
810.175	0.16	
810.565	0.16	
810.955	0.16	
811.345	0.16	
811.735	0.17	
812.125	0.17	
812.515	0.17	
812.904	0.16	
813.294	0.17	
813.684	0.17	
814.073	0.17	
814.463	0.17	
814.852	0.17	
815.241	0.17	
815.631	0.17	
816.02	0.17	
816.409	0.17	
816.798	0.18	
817.187	0.18	
817.576	0.17	
817.965	0.17	
818.354	0.17	
818.743	0.17	
819.132	0.17	
819.521	0.18	
819.909	0.18	
820.298	0.18	
820.686	0.18	
821.075	0.19	
821.463	0.18	
821.852	0.18	
822.24	0.17	
822.628	0.18	
823.017	0.18	
823.405	0.18	
823.793	0.18	
824.181	0.19	
824.569	0.18	
824.957	0.18	
825.345	0.19	
825.733	0.18	
826.12	0.18	
826.508	0.18	
826.896	0.19	
827.283	0.18	
827.671	0.19	
828.059	0.18	
828.446	0.18	
828.833	0.18	
829.221	0.18	
829.608	0.18	
829.995	0.19	
830.382	0.18	
830.769	0.19	
831.156	0.19	
831.543	0.19	
831.93	0.19	
832.317	0.19	
832.704	0.19	
833.091	0.19	
833.477	0.19	
833.864	0.19	
834.251	0.19	
834.637	0.19	
835.024	0.19	
835.41	0.19	
835.796	0.19	
836.183	0.19	
836.569	0.19	
836.955	0.19	
837.341	0.18	
837.727	0.18	
838.113	0.19	
838.499	0.18	
838.885	0.18	
839.271	0.18	
839.657	0.18	
840.043	0.19	
840.428	0.19	
840.814	0.18	
841.199	0.17	
841.585	0.18	
841.97	0.18	
842.356	0.17	
842.741	0.17	
843.126	0.17	
843.512	0.17	
843.897	0.17	
844.282	0.17	
844.667	0.17	
845.052	0.17	
845.437	0.17	
845.822	0.17	
846.206	0.17	
846.591	0.17	
846.976	0.17	
847.361	0.16	
847.745	0.17	
848.13	0.17	
848.514	0.16	
848.899	0.16	
849.283	0.15	
849.667	0.16	
850.051	0.15	
850.436	0.16	
850.82	0.15	
851.204	0.14	
851.588	0.15	
851.972	0.15	
852.356	0.15	
852.74	0.15	
853.123	0.14	
853.507	0.14	
853.891	0.14	
854.274	0.14	
854.658	0.14	
855.041	0.13	
855.425	0.13	
855.808	0.12	
856.192	0.13	
856.575	0.13	
856.958	0.13	
857.341	0.13	
857.724	0.12	
858.107	0.13	
858.49	0.13	
858.873	0.12	
859.256	0.12	
859.639	0.12	
860.022	0.12	
860.404	0.12	
860.787	0.11	
861.17	0.12	
861.552	0.12	
861.935	0.11	
862.317	0.11	
862.699	0.11	
863.082	0.09	
863.464	0.1	
863.846	0.11	
864.228	0.1	
864.61	0.09	
864.992	0.1	
865.374	0.09	
865.756	0.1	
866.138	0.09	
866.52	0.09	
866.902	0.09	
867.283	0.08	
867.665	0.08	
868.046	0.08	
868.428	0.08	
868.809	0.08	
869.191	0.09	
869.572	0.08	
869.953	0.08	
870.335	0.07	
870.716	0.07	
871.097	0.08	
871.478	0.07	
871.859	0.06	
872.24	0.06	
872.621	0.06	
873.001	0.07	
873.382	0.07	
873.763	0.06	
874.143	0.07	
874.524	0.06	
874.905	0.06	
875.285	0.05	
875.665	0.06	
876.046	0.06	
876.426	0.06	
876.806	0.05	
877.186	0.05	
877.567	0.04	
877.947	0.05	
878.327	0.05	
878.707	0.05	
879.086	0.05	
879.466	0.05	
879.846	0.05	
880.226	0.05	
880.605	0.05	
880.985	0.04	
881.365	0.05	
881.744	0.05	
882.124	0.05	
882.503	0.05	
882.882	0.05	
883.261	0.04	
883.641	0.05	
884.02	0.03	
884.399	0.03	
884.778	0.03	
885.157	0.06	
885.536	0.04	
885.915	0.04	
886.293	0.05	
886.672	0.05	
887.051	0.04	
887.429	0.03	
887.808	0.05	
888.186	0.05	
888.565	0.03	
888.943	0.06	
889.322	0.04	
889.7	0.05	
890.078	0.05	
890.456	0.04	
890.834	0.06	
891.212	0.04	
891.59	0.04	
891.968	0.04	
892.346	0.05	
892.724	0.05	
893.102	0.06	
893.479	0.05	
893.857	0.06	
894.235	0.05	
894.612	0.05	
894.99	0.04	
895.367	0.05	
895.744	0.07	
896.122	0.05	
896.499	0.05	
896.876	0.07	
897.253	0.06	
897.63	0.07	
898.007	0.07	
898.384	0.06	
898.761	0.06	
899.138	0.07	
899.515	0.07	
899.891	0.06	
900.268	0.07	
900.645	0.07	
901.021	0.06	
901.398	0.06	
901.774	0.08	
902.15	0.07	
902.527	0.08	
902.903	0.07	
903.279	0.08	
903.655	0.09	
904.031	0.08	
904.407	0.1	
904.783	0.09	
905.159	0.09	
905.535	0.1	
905.911	0.09	
906.287	0.11	
906.662	0.1	
907.038	0.11	
907.413	0.11	
907.789	0.1	
908.164	0.1	
908.54	0.1	
908.915	0.1	
909.29	0.11	
909.666	0.1	
910.041	0.11	
910.416	0.14	
910.791	0.14	
911.166	0.14	
911.541	0.14	
911.916	0.14	
912.29	0.09	
912.665	0.15	
913.04	0.12	
913.414	0.13	
913.789	0.13	
914.163	0.13	
914.538	0.15	
914.912	0.15	
915.287	0.13	
915.661	0.11	
916.035	0.12	
916.409	0.13	
916.783	0.12	
917.157	0.16	
917.531	0.13	
917.905	0.14	
918.279	0.14	
918.653	0.14	
919.027	0.15	
919.4	0.16	
919.774	0.12	
920.148	0.12	
920.521	0.15	
920.895	0.11	
921.268	0.14	
921.641	0.17	
922.015	0.14	
922.388	0.14	
922.761	0.13	
923.134	0.17	
923.507	0.15	
923.88	0.13	
924.253	0.15	
924.626	0.11	
924.999	0.18	
925.372	0.12	
925.744	0.17	
926.117	0.14	
926.489	0.15	
926.862	0.15	
927.234	0.17	
927.607	0.15	
927.979	0.13	
928.352	0.15	
928.724	0.17	
929.096	0.15	
929.468	0.12	
929.84	0.14	
930.212	0.14	
930.584	0.16	
930.956	0.13	
931.328	0.1	
931.7	0.12	
932.071	0.14	
932.443	0.13	
932.814	0.16	
933.186	0.14	
933.557	0.16	
933.929	0.16	
934.3	0.15	
934.672	0.1	
935.043	0.13	
935.414	0.12	
935.785	0.15	
936.156	0.14	
936.527	0.18	
936.898	0.13	
937.269	0.14	
937.64	0.18	
938.011	0.16	
938.381	0.2	
938.752	0.14	
939.123	0.13	
939.493	0.14	
939.864	0.12	
940.234	0.15	
940.604	0.16	
940.975	0.17	
941.345	0.17	
941.715	0.18	
942.085	0.12	
942.455	0.13	
942.825	0.16	
943.195	0.13	
943.565	0.14	
943.935	0.11	
944.305	0.11	
944.675	0.16	
945.044	0.14	
945.414	0.15	
945.783	0.17	
946.153	0.15	
946.522	0.18	
946.892	0.12	
947.261	0.16	
947.63	0.11	
947.999	0.16	
948.369	0.15	
948.738	0.15	
949.107	0.13	
949.476	0.18	
949.844	0.17	
950.213	0.12	
950.582	0.12	
950.951	0.14	
951.319	0.12	
951.688	0.18	
952.057	0.13	
952.425	0.15	
952.794	0.08	
953.162	0.18	
953.53	0.13	
953.898	0.17	
954.267	0.12	
954.635	0.14	
955.003	0.17	
955.371	0.15	
955.739	0.19	
956.107	0.16	
956.475	0.13	
956.842	0.2	
957.21	0.14	
957.578	0.18	
957.945	0.25	
958.313	0.14	
958.68	0.11	
959.048	0.25	
959.415	0.15	
959.783	0.14	
960.15	0.14	
960.517	0.17	
960.884	0.16	
961.251	0.14	
961.618	0.2	
961.985	0.24	
962.352	0.15	
962.719	0.27	
963.086	0.21	
963.452	0.31	
963.819	0.18	
964.186	0.17	
964.552	0.22	
964.919	0.12	
965.285	0.1	
965.652	0.2	
966.018	0.25	
966.384	0.2	
966.75	0.16	
967.116	0.19	
967.482	0.15	
967.848	0.23	
968.214	0.18	
968.58	0.2	
968.946	0.18	
969.312	0.15	
969.678	0.19	
970.043	0.15	
970.409	0.22	
970.774	0.16	
971.14	0.15	
971.505	0.27	
971.871	0.23	
972.236	0.16	
972.601	0.15	
972.967	0.2	
973.332	0.24	
973.697	0.13	
974.062	0.17	
974.427	0.19	
974.792	0.17	
975.156	0.13	
975.521	0.22	
975.886	0.18	
976.251	0.1	
976.615	0.18	
976.98	0.15	
977.344	0.12	
977.709	0.18	
978.073	0.13	
978.437	0.23	
978.802	0.22	
979.166	0.25	
979.53	0.19	
979.894	0.07	
980.258	0.19	
980.622	0.25	
980.986	0.17	
981.35	0.16	
981.713	0.27	
982.077	0.22	
982.441	0.16	
982.804	0.27	
983.168	0.24	
983.531	0.22	
983.895	0.16	
984.258	0.19	
984.621	0.25	
984.985	0.18	
985.348	0.05	
985.711	0.23	
986.074	0.28	
986.437	0.21	
986.8	0.11	
987.163	0.13	
987.526	0.17	
987.888	0.16	
988.251	0.2	
988.614	0.12	
988.976	0.24	
989.339	0.15	
989.701	0.36	
990.064	0.06	
990.426	0.15	
990.788	0.18	
991.151	0.22	
991.513	0.12	
991.875	0.21	
992.237	0.24	
992.599	0.12	
992.961	0.15	
993.323	0.26	
993.685	0.1	
994.046	0.06	
994.408	0.21	
994.77	0.15	
995.131	0.1	
995.493	0.18	
995.854	0.05	
996.216	0.09	
996.577	0.22	
996.938	0.14	
997.299	0.09	
997.661	0.14	
998.022	0.09	
998.383	0.38	
998.744	0.16	
999.105	0.18	
999.465	0.19	
999.826	0.17	
1000.187	0.18	
1000.548	0.13	
1000.908	0.21	
1001.269	0.07	
1001.629	0.24	
1001.99	0.27	
1002.35	0.4	
1002.711	0.02	
1003.071	0.29	
1003.431	0.22	
1003.791	0.25	
1004.151	0.12	
1004.511	0.07	
1004.871	0.27	
1005.231	0.21	
1005.591	0.04	
1005.951	0.16	
1006.311	0.14	
1006.67	0.19	
1007.03	0.03	
1007.389	0.07	
1007.749	0.22	
1008.108	0.15	
1008.468	0.18	
1008.827	0.01	
1009.186	0.23	
1009.545	0.14	
1009.905	0.14	
1010.264	0.13	
1010.623	0.17	
1010.982	0.19	
1011.341	0.18	
1011.699	0.09	
1012.058	0.18	
1012.417	0.04	
1012.776	0.33	
1013.134	0.17	
1013.493	0.25	
1013.851	0.26	
1014.21	0.24	
1014.568	0.23	
1014.926	0.21	
1015.284	0.23	
1015.643	0.19	
1016.001	0.12	
1016.359	0.36	
1016.717	0.33	
1017.075	0.02	
1017.433	0.19	
1017.79	0.17	
1018.148	0.03	
1018.506	0.2	
1018.864	0.17	
1019.221	0.14	
1019.579	0.08	
1019.936	0.17	
1020.294	0.1	
1020.651	0.16	
1021.008	-0.02	
1021.365	0.32	
1021.723	0.25	
1022.08	0.23	
1022.437	0.43	
1022.794	0.19	
1023.151	0.18	
1023.507	0.13	
1023.864	0.19	
1024.221	0.23	
1024.578	0.08	
1024.934	0.23	
1025.291	0.17	
1025.647	0.15	
1026.004	-0.03	
1026.36	0.06	
1026.717	0.2	
1027.073	0.16	
1027.429	0.27	
1027.785	0.12	
1028.141	0.17	
1028.497	0.2	
1028.853	0.21	
1029.209	0.16	
1029.565	0.11	
1029.921	0.18	
1030.277	0.07	
1030.632	0.14	
1030.988	0.07	
1031.343	0.16	
1031.699	0.07	
1032.054	0.07	
1032.41	0.07	
