Absorbance: 0.09	
187.923	-0	
188.387	-0	
188.851	-0	
189.315	-2.59	
189.779	-1.6	
190.242	-1.58	
190.706	-2.6	
191.17	-0	
191.633	-0	
192.097	-0	
192.56	-1.42	
193.024	-0	
193.487	-0	
193.951	-0	
194.414	-0	
194.877	-1.75	
195.34	-1.84	
195.803	-0	
196.266	-0	
196.73	-1.76	
197.193	-2.31	
197.656	-1.34	
198.118	-0	
198.581	-1.09	
199.044	-0.55	
199.507	-0.54	
199.97	-0.47	
200.432	-0.47	
200.895	-0.53	
201.358	-0.5	
201.82	-0.52	
202.283	-0.49	
202.745	-0.5	
203.207	-0.5	
203.67	-0.5	
204.132	-0.52	
204.594	-0.52	
205.056	-0.48	
205.519	-0.49	
205.981	-0.55	
206.443	-0.54	
206.905	-0.5	
207.367	-0.51	
207.829	-0.47	
208.291	-0.53	
208.752	-0.58	
209.214	-0.49	
209.676	-0.47	
210.138	-0.46	
210.599	-0.46	
211.061	-0.49	
211.522	-0.47	
211.984	-0.51	
212.445	-0.47	
212.907	-0.55	
213.368	-0.48	
213.829	-0.47	
214.291	-0.45	
214.752	-0.45	
215.213	-0.38	
215.674	-0.36	
216.135	-0.33	
216.596	-0.29	
217.057	-0.24	
217.518	-0.25	
217.979	-0.21	
218.44	-0.15	
218.9	-0.08	
219.361	-0.03	
219.822	0.01	
220.282	0.04	
220.743	0.07	
221.204	0.09	
221.664	0.14	
222.125	0.17	
222.585	0.18	
223.045	0.28	
223.506	0.3	
223.966	0.27	
224.426	0.34	
224.886	0.33	
225.346	0.35	
225.806	0.4	
226.266	0.39	
226.726	0.4	
227.186	0.43	
227.646	0.45	
228.106	0.45	
228.566	0.45	
229.025	0.45	
229.485	0.46	
229.945	0.46	
230.404	0.48	
230.864	0.49	
231.323	0.48	
231.783	0.49	
232.242	0.49	
232.702	0.5	
233.161	0.53	
233.62	0.52	
234.079	0.51	
234.538	0.52	
234.998	0.51	
235.457	0.51	
235.916	0.54	
236.375	0.55	
236.834	0.53	
237.292	0.54	
237.751	0.58	
238.21	0.58	
238.669	0.56	
239.127	0.58	
239.586	0.57	
240.045	0.58	
240.503	0.61	
240.962	0.59	
241.42	0.59	
241.878	0.59	
242.337	0.59	
242.795	0.59	
243.253	0.62	
243.712	0.61	
244.17	0.64	
244.628	0.63	
245.086	0.64	
245.544	0.62	
246.002	0.61	
246.46	0.63	
246.918	0.65	
247.375	0.65	
247.833	0.7	
248.291	0.66	
248.749	0.67	
249.206	0.68	
249.664	0.67	
250.121	0.68	
250.579	0.67	
251.036	0.7	
251.494	0.68	
251.951	0.7	
252.408	0.72	
252.866	0.73	
253.323	0.76	
253.78	0.75	
254.237	0.75	
254.694	0.77	
255.151	0.76	
255.608	0.74	
256.065	0.75	
256.522	0.73	
256.979	0.74	
257.435	0.78	
257.892	0.76	
258.349	0.79	
258.805	0.78	
259.262	0.77	
259.718	0.77	
260.175	0.79	
260.631	0.79	
261.088	0.78	
261.544	0.8	
262	0.8	
262.457	0.8	
262.913	0.81	
263.369	0.8	
263.825	0.81	
264.281	0.83	
264.737	0.82	
265.193	0.85	
265.649	0.81	
266.105	0.82	
266.561	0.81	
267.016	0.82	
267.472	0.82	
267.928	0.8	
268.383	0.81	
268.839	0.8	
269.294	0.8	
269.75	0.83	
270.205	0.82	
270.661	0.82	
271.116	0.82	
271.571	0.83	
272.026	0.82	
272.482	0.83	
272.937	0.81	
273.392	0.82	
273.847	0.84	
274.302	0.8	
274.757	0.8	
275.212	0.81	
275.666	0.8	
276.121	0.81	
276.576	0.84	
277.031	0.81	
277.485	0.85	
277.94	0.82	
278.395	0.81	
278.849	0.84	
279.303	0.83	
279.758	0.83	
280.212	0.82	
280.667	0.83	
281.121	0.84	
281.575	0.83	
282.029	0.83	
282.483	0.83	
282.937	0.81	
283.391	0.82	
283.845	0.82	
284.299	0.79	
284.753	0.79	
285.207	0.81	
285.661	0.79	
286.115	0.76	
286.568	0.76	
287.022	0.76	
287.475	0.77	
287.929	0.75	
288.383	0.73	
288.836	0.73	
289.289	0.72	
289.743	0.72	
290.196	0.67	
290.649	0.68	
291.102	0.65	
291.556	0.64	
292.009	0.61	
292.462	0.61	
292.915	0.61	
293.368	0.58	
293.821	0.55	
294.274	0.52	
294.726	0.52	
295.179	0.5	
295.632	0.49	
296.084	0.47	
296.537	0.45	
296.99	0.43	
297.442	0.41	
297.895	0.39	
298.347	0.38	
298.8	0.36	
299.252	0.36	
299.704	0.32	
300.156	0.32	
300.609	0.32	
301.061	0.3	
301.513	0.27	
301.965	0.26	
302.417	0.25	
302.869	0.22	
303.321	0.23	
303.773	0.2	
304.224	0.2	
304.676	0.19	
305.128	0.19	
305.579	0.17	
306.031	0.15	
306.483	0.15	
306.934	0.13	
307.386	0.13	
307.837	0.12	
308.288	0.11	
308.74	0.11	
309.191	0.1	
309.642	0.08	
310.093	0.08	
310.544	0.07	
310.996	0.08	
311.447	0.06	
311.898	0.05	
312.348	0.05	
312.799	0.04	
313.25	0.03	
313.701	0.03	
314.152	0.03	
314.602	0.02	
315.053	0.01	
315.504	0.01	
315.954	0.01	
316.405	0.01	
316.855	0	
317.305	-0.01	
317.756	-0	
318.206	0	
318.656	-0.01	
319.107	-0.01	
319.557	-0.02	
320.007	-0.03	
320.457	-0.02	
320.907	-0.03	
321.357	-0.02	
321.807	-0.03	
322.257	-0.05	
322.706	-0.03	
323.156	-0.04	
323.606	-0.04	
324.056	-0.05	
324.505	-0.04	
324.955	-0.05	
325.404	-0.05	
325.854	-0.05	
326.303	-0.05	
326.753	-0.05	
327.202	-0.06	
327.651	-0.07	
328.1	-0.07	
328.55	-0.07	
328.999	-0.07	
329.448	-0.07	
329.897	-0.06	
330.346	-0.07	
330.795	-0.06	
331.244	-0.06	
331.693	-0.06	
332.141	-0.06	
332.59	-0.07	
333.039	-0.06	
333.487	-0.07	
333.936	-0.08	
334.385	-0.07	
334.833	-0.07	
335.282	-0.07	
335.73	-0.07	
336.178	-0.08	
336.627	-0.07	
337.075	-0.08	
337.523	-0.08	
337.971	-0.08	
338.419	-0.08	
338.867	-0.08	
339.315	-0.08	
339.763	-0.08	
340.211	-0.08	
340.659	-0.09	
341.107	-0.08	
341.555	-0.08	
342.002	-0.08	
342.45	-0.08	
342.898	-0.09	
343.345	-0.07	
343.793	-0.1	
344.24	-0.08	
344.688	-0.08	
345.135	-0.08	
345.582	-0.09	
346.03	-0.08	
346.477	-0.08	
346.924	-0.09	
347.371	-0.09	
347.818	-0.08	
348.265	-0.09	
348.712	-0.09	
349.159	-0.08	
349.606	-0.09	
350.053	-0.08	
350.5	-0.08	
350.947	-0.09	
351.393	-0.09	
351.84	-0.09	
352.287	-0.1	
352.733	-0.1	
353.18	-0.1	
353.626	-0.1	
354.072	-0.09	
354.519	-0.09	
354.965	-0.1	
355.411	-0.1	
355.858	-0.1	
356.304	-0.09	
356.75	-0.09	
357.196	-0.1	
357.642	-0.1	
358.088	-0.11	
358.534	-0.09	
358.98	-0.1	
359.425	-0.1	
359.871	-0.1	
360.317	-0.09	
360.763	-0.09	
361.208	-0.09	
361.654	-0.07	
362.099	-0.09	
362.545	-0.09	
362.99	-0.09	
363.436	-0.1	
363.881	-0.09	
364.326	-0.08	
364.771	-0.09	
365.217	-0.09	
365.662	-0.08	
366.107	-0.09	
366.552	-0.1	
366.997	-0.09	
367.442	-0.09	
367.887	-0.08	
368.332	-0.09	
368.776	-0.09	
369.221	-0.11	
369.666	-0.09	
370.11	-0.09	
370.555	-0.09	
371	-0.09	
371.444	-0.09	
371.888	-0.1	
372.333	-0.09	
372.777	-0.1	
373.221	-0.09	
373.666	-0.08	
374.11	-0.08	
374.554	-0.09	
374.998	-0.09	
375.442	-0.09	
375.886	-0.09	
376.33	-0.09	
376.774	-0.09	
377.218	-0.08	
377.662	-0.08	
378.106	-0.08	
378.549	-0.08	
378.993	-0.09	
379.436	-0.08	
379.88	-0.09	
380.324	-0.08	
380.767	-0.08	
381.21	-0.09	
381.654	-0.09	
382.097	-0.1	
382.54	-0.09	
382.984	-0.07	
383.427	-0.08	
383.87	-0.09	
384.313	-0.09	
384.756	-0.09	
385.199	-0.09	
385.642	-0.09	
386.085	-0.09	
386.528	-0.08	
386.97	-0.09	
387.413	-0.08	
387.856	-0.08	
388.298	-0.09	
388.741	-0.09	
389.183	-0.08	
389.626	-0.08	
390.068	-0.08	
390.511	-0.08	
390.953	-0.08	
391.395	-0.08	
391.838	-0.08	
392.28	-0.08	
392.722	-0.08	
393.164	-0.08	
393.606	-0.09	
394.048	-0.08	
394.49	-0.09	
394.932	-0.09	
395.374	-0.09	
395.815	-0.08	
396.257	-0.1	
396.699	-0.08	
397.141	-0.08	
397.582	-0.08	
398.024	-0.08	
398.465	-0.08	
398.907	-0.08	
399.348	-0.08	
399.789	-0.09	
400.231	-0.09	
400.672	-0.09	
401.113	-0.08	
401.554	-0.09	
401.995	-0.09	
402.436	-0.09	
402.877	-0.09	
403.318	-0.08	
403.759	-0.09	
404.2	-0.08	
404.641	-0.08	
405.082	-0.09	
405.522	-0.08	
405.963	-0.09	
406.404	-0.1	
406.844	-0.08	
407.285	-0.09	
407.725	-0.09	
408.166	-0.08	
408.606	-0.08	
409.046	-0.08	
409.487	-0.1	
409.927	-0.08	
410.367	-0.1	
410.807	-0.08	
411.247	-0.07	
411.687	-0.1	
412.127	-0.09	
412.567	-0.1	
413.007	-0.09	
413.447	-0.09	
413.886	-0.08	
414.326	-0.08	
414.766	-0.08	
415.205	-0.07	
415.645	-0.09	
416.084	-0.08	
416.524	-0.09	
416.963	-0.08	
417.403	-0.08	
417.842	-0.08	
418.281	-0.08	
418.721	-0.08	
419.16	-0.09	
419.599	-0.09	
420.038	-0.07	
420.477	-0.08	
420.916	-0.08	
421.355	-0.08	
421.794	-0.08	
422.233	-0.08	
422.671	-0.08	
423.11	-0.09	
423.549	-0.08	
423.987	-0.08	
424.426	-0.09	
424.864	-0.08	
425.303	-0.08	
425.741	-0.09	
426.18	-0.09	
426.618	-0.08	
427.056	-0.09	
427.495	-0.07	
427.933	-0.08	
428.371	-0.07	
428.809	-0.08	
429.247	-0.09	
429.685	-0.08	
430.123	-0.08	
430.561	-0.08	
430.999	-0.08	
431.436	-0.08	
431.874	-0.09	
432.312	-0.08	
432.749	-0.09	
433.187	-0.08	
433.625	-0.08	
434.062	-0.09	
434.5	-0.09	
434.937	-0.08	
435.374	-0.09	
435.812	-0.07	
436.249	-0.09	
436.686	-0.09	
437.123	-0.08	
437.56	-0.08	
437.997	-0.08	
438.434	-0.07	
438.871	-0.09	
439.308	-0.08	
439.745	-0.07	
440.182	-0.08	
440.618	-0.08	
441.055	-0.07	
441.492	-0.07	
441.928	-0.08	
442.365	-0.07	
442.801	-0.08	
443.238	-0.08	
443.674	-0.09	
444.111	-0.07	
444.547	-0.08	
444.983	-0.08	
445.419	-0.08	
445.855	-0.08	
446.292	-0.08	
446.728	-0.07	
447.164	-0.08	
447.599	-0.08	
448.035	-0.07	
448.471	-0.08	
448.907	-0.08	
449.343	-0.07	
449.778	-0.07	
450.214	-0.07	
450.65	-0.08	
451.085	-0.07	
451.521	-0.06	
451.956	-0.07	
452.392	-0.07	
452.827	-0.07	
453.262	-0.07	
453.697	-0.06	
454.133	-0.07	
454.568	-0.08	
455.003	-0.08	
455.438	-0.06	
455.873	-0.07	
456.308	-0.07	
456.743	-0.07	
457.178	-0.07	
457.612	-0.08	
458.047	-0.07	
458.482	-0.07	
458.917	-0.06	
459.351	-0.07	
459.786	-0.07	
460.22	-0.07	
460.655	-0.07	
461.089	-0.07	
461.523	-0.06	
461.958	-0.07	
462.392	-0.08	
462.826	-0.07	
463.26	-0.06	
463.694	-0.06	
464.128	-0.06	
464.562	-0.07	
464.996	-0.07	
465.43	-0.06	
465.864	-0.06	
466.298	-0.06	
466.732	-0.05	
467.165	-0.06	
467.599	-0.06	
468.033	-0.06	
468.466	-0.07	
468.9	-0.07	
469.333	-0.05	
469.767	-0.06	
470.2	-0.06	
470.633	-0.06	
471.066	-0.05	
471.5	-0.06	
471.933	-0.06	
472.366	-0.05	
472.799	-0.06	
473.232	-0.06	
473.665	-0.05	
474.098	-0.06	
474.531	-0.05	
474.963	-0.05	
475.396	-0.05	
475.829	-0.05	
476.262	-0.05	
476.694	-0.06	
477.127	-0.05	
477.559	-0.04	
477.992	-0.05	
478.424	-0.05	
478.856	-0.05	
479.289	-0.06	
479.721	-0.05	
480.153	-0.04	
480.585	-0.05	
481.017	-0.05	
481.449	-0.05	
481.881	-0.05	
482.313	-0.04	
482.745	-0.05	
483.177	-0.04	
483.609	-0.05	
484.041	-0.04	
484.472	-0.04	
484.904	-0.04	
485.336	-0.05	
485.767	-0.05	
486.199	-0.05	
486.63	-0.04	
487.062	-0.04	
487.493	-0.04	
487.924	-0.04	
488.355	-0.04	
488.787	-0.04	
489.218	-0.04	
489.649	-0.04	
490.08	-0.04	
490.511	-0.04	
490.942	-0.04	
491.373	-0.04	
491.804	-0.03	
492.234	-0.04	
492.665	-0.04	
493.096	-0.04	
493.526	-0.04	
493.957	-0.04	
494.388	-0.04	
494.818	-0.04	
495.249	-0.03	
495.679	-0.04	
496.109	-0.04	
496.54	-0.04	
496.97	-0.04	
497.4	-0.03	
497.83	-0.04	
498.26	-0.04	
498.69	-0.03	
499.12	-0.04	
499.55	-0.04	
499.98	-0.04	
500.41	-0.03	
500.84	-0.04	
501.269	-0.04	
501.699	-0.03	
502.129	-0.03	
502.558	-0.04	
502.988	-0.03	
503.417	-0.04	
503.847	-0.03	
504.276	-0.03	
504.706	-0.03	
505.135	-0.04	
505.564	-0.03	
505.993	-0.03	
506.422	-0.02	
506.851	-0.03	
507.28	-0.02	
507.709	-0.03	
508.138	-0.02	
508.567	-0.03	
508.996	-0.02	
509.425	-0.02	
509.854	-0.02	
510.282	-0.02	
510.711	-0.03	
511.14	-0.03	
511.568	-0.02	
511.997	-0.02	
512.425	-0.02	
512.853	-0.02	
513.282	-0.02	
513.71	-0.02	
514.138	-0.02	
514.566	-0.02	
514.994	-0.03	
515.423	-0.02	
515.851	-0.03	
516.279	-0.02	
516.706	-0.03	
517.134	-0.02	
517.562	-0.02	
517.99	-0.02	
518.418	-0.02	
518.845	-0.03	
519.273	-0.02	
519.701	-0.02	
520.128	-0.02	
520.556	-0.02	
520.983	-0.02	
521.41	-0.02	
521.838	-0.02	
522.265	-0.02	
522.692	-0.02	
523.119	-0.02	
523.546	-0.02	
523.973	-0.02	
524.4	-0.02	
524.827	-0.01	
525.254	-0.02	
525.681	-0.01	
526.108	-0.02	
526.535	-0.02	
526.962	-0.01	
527.388	-0.02	
527.815	-0.02	
528.241	-0.01	
528.668	-0.02	
529.094	-0.02	
529.521	-0.01	
529.947	-0.02	
530.373	-0.02	
530.8	-0.02	
531.226	-0.01	
531.652	-0.02	
532.078	-0.02	
532.504	-0.02	
532.93	-0.01	
533.356	-0.02	
533.782	-0.02	
534.208	-0.02	
534.634	-0.01	
535.059	-0.01	
535.485	-0.01	
535.911	-0.01	
536.336	-0.01	
536.762	-0.01	
537.187	-0.01	
537.613	-0.01	
538.038	-0.01	
538.464	-0.01	
538.889	-0.01	
539.314	-0.01	
539.739	-0.01	
540.164	-0.01	
540.59	-0	
541.015	-0.01	
541.44	-0	
541.865	-0	
542.289	-0.01	
542.714	-0.01	
543.139	-0	
543.564	0	
543.988	-0	
544.413	-0	
544.838	-0.01	
545.262	-0.01	
545.687	0	
546.111	-0	
546.535	-0	
546.96	-0.01	
547.384	-0	
547.808	-0	
548.233	-0	
548.657	0	
549.081	0	
549.505	-0	
549.929	0	
550.353	-0	
550.776	0	
551.2	0	
551.624	0	
552.048	0	
552.471	0	
552.895	0	
553.319	0	
553.742	-0	
554.166	0	
554.589	0.01	
555.012	0	
555.436	0.01	
555.859	0.01	
556.282	0.01	
556.705	0.01	
557.128	0.01	
557.552	0.01	
557.975	0.01	
558.398	0.01	
558.82	0.01	
559.243	0.01	
559.666	0.01	
560.089	0.01	
560.512	0.01	
560.934	0.01	
561.357	0.01	
561.779	0.02	
562.202	0.01	
562.624	0.01	
563.047	0.01	
563.469	0.01	
563.891	0.01	
564.314	0.01	
564.736	0.02	
565.158	0.02	
565.58	0.02	
566.002	0.02	
566.424	0.02	
566.846	0.02	
567.268	0.02	
567.69	0.02	
568.111	0.02	
568.533	0.02	
568.955	0.02	
569.377	0.02	
569.798	0.02	
570.22	0.02	
570.641	0.02	
571.063	0.02	
571.484	0.02	
571.905	0.02	
572.327	0.02	
572.748	0.02	
573.169	0.02	
573.59	0.02	
574.011	0.02	
574.432	0.02	
574.853	0.02	
575.274	0.02	
575.695	0.02	
576.116	0.03	
576.536	0.03	
576.957	0.03	
577.378	0.03	
577.798	0.03	
578.219	0.03	
578.64	0.03	
579.06	0.03	
579.48	0.03	
579.901	0.03	
580.321	0.03	
580.741	0.03	
581.161	0.03	
581.582	0.03	
582.002	0.03	
582.422	0.04	
582.842	0.03	
583.262	0.04	
583.682	0.04	
584.101	0.04	
584.521	0.04	
584.941	0.04	
585.361	0.04	
585.78	0.04	
586.2	0.04	
586.619	0.04	
587.039	0.04	
587.458	0.04	
587.878	0.04	
588.297	0.04	
588.716	0.05	
589.136	0.05	
589.555	0.05	
589.974	0.05	
590.393	0.05	
590.812	0.05	
591.231	0.05	
591.65	0.05	
592.069	0.05	
592.488	0.05	
592.906	0.05	
593.325	0.05	
593.744	0.05	
594.162	0.04	
594.581	0.05	
594.999	0.05	
595.418	0.05	
595.836	0.05	
596.255	0.05	
596.673	0.05	
597.091	0.04	
597.509	0.05	
597.928	0.05	
598.346	0.05	
598.764	0.05	
599.182	0.04	
599.6	0.04	
600.018	0.04	
600.435	0.05	
600.853	0.05	
601.271	0.05	
601.689	0.05	
602.106	0.05	
602.524	0.06	
602.941	0.06	
603.359	0.06	
603.776	0.06	
604.194	0.06	
604.611	0.06	
605.028	0.06	
605.446	0.07	
605.863	0.07	
606.28	0.07	
606.697	0.07	
607.114	0.07	
607.531	0.08	
607.948	0.08	
608.365	0.08	
608.782	0.09	
609.198	0.09	
609.615	0.09	
610.032	0.1	
610.448	0.1	
610.865	0.1	
611.281	0.1	
611.698	0.1	
612.114	0.11	
612.531	0.11	
612.947	0.11	
613.363	0.11	
613.779	0.11	
614.196	0.11	
614.612	0.12	
615.028	0.12	
615.444	0.12	
615.86	0.12	
616.276	0.13	
616.691	0.13	
617.107	0.13	
617.523	0.14	
617.939	0.14	
618.354	0.14	
618.77	0.15	
619.185	0.15	
619.601	0.15	
620.016	0.15	
620.432	0.16	
620.847	0.16	
621.262	0.16	
621.677	0.16	
622.093	0.16	
622.508	0.16	
622.923	0.16	
623.338	0.17	
623.753	0.17	
624.168	0.17	
624.583	0.17	
624.997	0.18	
625.412	0.18	
625.827	0.18	
626.242	0.19	
626.656	0.19	
627.071	0.19	
627.485	0.19	
627.9	0.19	
628.314	0.19	
628.728	0.2	
629.143	0.2	
629.557	0.2	
629.971	0.21	
630.385	0.21	
630.799	0.21	
631.213	0.21	
631.627	0.22	
632.041	0.22	
632.455	0.22	
632.869	0.22	
633.283	0.23	
633.697	0.23	
634.11	0.23	
634.524	0.24	
634.937	0.23	
635.351	0.24	
635.764	0.24	
636.178	0.24	
636.591	0.25	
637.004	0.25	
637.418	0.25	
637.831	0.25	
638.244	0.26	
638.657	0.26	
639.07	0.26	
639.483	0.26	
639.896	0.27	
640.309	0.27	
640.722	0.27	
641.135	0.27	
641.547	0.28	
641.96	0.28	
642.373	0.28	
642.785	0.29	
643.198	0.29	
643.61	0.29	
644.023	0.3	
644.435	0.3	
644.848	0.3	
645.26	0.3	
645.672	0.3	
646.084	0.3	
646.496	0.31	
646.908	0.31	
647.32	0.32	
647.732	0.32	
648.144	0.33	
648.556	0.32	
648.968	0.32	
649.38	0.33	
649.791	0.33	
650.203	0.33	
650.615	0.33	
651.026	0.33	
651.438	0.35	
651.849	0.34	
652.261	0.35	
652.672	0.35	
653.083	0.36	
653.495	0.36	
653.906	0.36	
654.317	0.36	
654.728	0.37	
655.139	0.37	
655.55	0.37	
655.961	0.36	
656.372	0.37	
656.783	0.37	
657.193	0.39	
657.604	0.39	
658.015	0.39	
658.425	0.4	
658.836	0.4	
659.246	0.41	
659.657	0.41	
660.067	0.42	
660.478	0.42	
660.888	0.42	
661.298	0.43	
661.708	0.43	
662.119	0.43	
662.529	0.43	
662.939	0.44	
663.349	0.44	
663.759	0.45	
664.169	0.45	
664.578	0.46	
664.988	0.45	
665.398	0.46	
665.808	0.47	
666.217	0.47	
666.627	0.48	
667.036	0.47	
667.446	0.48	
667.855	0.49	
668.265	0.49	
668.674	0.49	
669.083	0.5	
669.492	0.5	
669.902	0.51	
670.311	0.51	
670.72	0.52	
671.129	0.52	
671.538	0.51	
671.947	0.52	
672.355	0.53	
672.764	0.54	
673.173	0.54	
673.582	0.55	
673.99	0.54	
674.399	0.55	
674.807	0.55	
675.216	0.56	
675.624	0.56	
676.033	0.57	
676.441	0.57	
676.849	0.57	
677.258	0.58	
677.666	0.58	
678.074	0.59	
678.482	0.59	
678.89	0.59	
679.298	0.6	
679.706	0.6	
680.114	0.61	
680.522	0.6	
680.929	0.62	
681.337	0.62	
681.745	0.62	
682.152	0.62	
682.56	0.62	
682.967	0.64	
683.375	0.64	
683.782	0.65	
684.189	0.65	
684.597	0.65	
685.004	0.66	
685.411	0.66	
685.818	0.66	
686.225	0.67	
686.632	0.67	
687.039	0.67	
687.446	0.68	
687.853	0.68	
688.26	0.68	
688.667	0.69	
689.073	0.69	
689.48	0.7	
689.887	0.7	
690.293	0.69	
690.7	0.71	
691.106	0.71	
691.513	0.71	
691.919	0.72	
692.325	0.72	
692.732	0.72	
693.138	0.73	
693.544	0.74	
693.95	0.72	
694.356	0.73	
694.762	0.74	
695.168	0.74	
695.574	0.76	
695.98	0.76	
696.385	0.76	
696.791	0.75	
697.197	0.77	
697.602	0.76	
698.008	0.77	
698.413	0.77	
698.819	0.78	
699.224	0.78	
699.63	0.79	
700.035	0.79	
700.44	0.79	
700.845	0.8	
701.251	0.79	
701.656	0.8	
702.061	0.8	
702.466	0.81	
702.871	0.81	
703.275	0.8	
703.68	0.82	
704.085	0.81	
704.49	0.82	
704.894	0.83	
705.299	0.83	
705.704	0.84	
706.108	0.83	
706.513	0.84	
706.917	0.84	
707.321	0.84	
707.726	0.85	
708.13	0.86	
708.534	0.85	
708.938	0.87	
709.342	0.86	
709.746	0.86	
710.15	0.87	
710.554	0.87	
710.958	0.88	
711.362	0.88	
711.766	0.88	
712.17	0.89	
712.573	0.9	
712.977	0.89	
713.38	0.89	
713.784	0.9	
714.187	0.9	
714.591	0.91	
714.994	0.91	
715.397	0.9	
715.801	0.91	
716.204	0.92	
716.607	0.93	
717.01	0.92	
717.413	0.92	
717.816	0.93	
718.219	0.93	
718.622	0.93	
719.025	0.94	
719.428	0.93	
719.83	0.94	
720.233	0.94	
720.636	0.96	
721.038	0.95	
721.441	0.95	
721.843	0.94	
722.246	0.95	
722.648	0.97	
723.05	0.95	
723.453	0.96	
723.855	0.96	
724.257	0.97	
724.659	0.98	
725.061	0.98	
725.463	0.97	
725.865	0.99	
726.267	0.99	
726.669	0.99	
727.07	0.99	
727.472	0.99	
727.874	0.98	
728.276	1	
728.677	0.99	
729.079	0.98	
729.48	1	
729.881	1	
730.283	1	
730.684	1.01	
731.085	1.01	
731.487	1.01	
731.888	1.01	
732.289	1.01	
732.69	1.02	
733.091	1.02	
733.492	1.02	
733.893	1.02	
734.294	1.02	
734.694	1.03	
735.095	1.03	
735.496	1.04	
735.896	1.04	
736.297	1.03	
736.697	1.04	
737.098	1.04	
737.498	1.04	
737.899	1.04	
738.299	1.05	
738.699	1.05	
739.099	1.04	
739.5	1.05	
739.9	1.06	
740.3	1.05	
740.7	1.05	
741.1	1.05	
741.5	1.05	
741.899	1.06	
742.299	1.06	
742.699	1.06	
743.099	1.06	
743.498	1.06	
743.898	1.06	
744.297	1.06	
744.697	1.06	
745.096	1.08	
745.495	1.07	
745.895	1.08	
746.294	1.06	
746.693	1.08	
747.092	1.08	
747.491	1.07	
747.89	1.07	
748.289	1.08	
748.688	1.07	
749.087	1.07	
749.486	1.07	
749.885	1.07	
750.284	1.08	
750.682	1.07	
751.081	1.08	
751.479	1.09	
751.878	1.08	
752.276	1.09	
752.675	1.08	
753.073	1.09	
753.471	1.09	
753.87	1.09	
754.268	1.09	
754.666	1.09	
755.064	1.09	
755.462	1.09	
755.86	1.09	
756.258	1.1	
756.656	1.1	
757.054	1.11	
757.452	1.1	
757.849	1.11	
758.247	1.11	
758.645	1.11	
759.042	1.12	
759.44	1.12	
759.837	1.11	
760.234	1.11	
760.632	1.12	
761.029	1.12	
761.426	1.11	
761.823	1.12	
762.221	1.11	
762.618	1.1	
763.015	1.11	
763.412	1.11	
763.809	1.11	
764.205	1.12	
764.602	1.11	
764.999	1.11	
765.396	1.11	
765.792	1.11	
766.189	1.1	
766.586	1.11	
766.982	1.1	
767.378	1.1	
767.775	1.09	
768.171	1.1	
768.567	1.1	
768.964	1.09	
769.36	1.1	
769.756	1.09	
770.152	1.09	
770.548	1.09	
770.944	1.08	
771.34	1.11	
771.736	1.09	
772.132	1.1	
772.527	1.09	
772.923	1.09	
773.319	1.1	
773.714	1.09	
774.11	1.09	
774.505	1.08	
774.901	1.08	
775.296	1.08	
775.691	1.08	
776.087	1.1	
776.482	1.08	
776.877	1.08	
777.272	1.09	
777.667	1.07	
778.062	1.09	
778.457	1.08	
778.852	1.08	
779.247	1.08	
779.642	1.07	
780.037	1.07	
780.431	1.08	
780.826	1.08	
781.22	1.07	
781.615	1.08	
782.009	1.08	
782.404	1.05	
782.798	1.08	
783.193	1.06	
783.587	1.06	
783.981	1.07	
784.375	1.07	
784.769	1.07	
785.163	1.05	
785.557	1.08	
785.951	1.07	
786.345	1.08	
786.739	1.05	
787.133	1.05	
787.527	1.05	
787.92	1.06	
788.314	1.07	
788.707	1.05	
789.101	1.05	
789.494	1.06	
789.888	1.07	
790.281	1.06	
790.674	1.06	
791.068	1.04	
791.461	1.05	
791.854	1.05	
792.247	1.05	
792.64	1.06	
793.033	1.06	
793.426	1.06	
793.819	1.05	
794.212	1.06	
794.605	1.05	
794.997	1.04	
795.39	1.05	
795.782	1.05	
796.175	1.04	
796.568	1.04	
796.96	1.04	
797.352	1.04	
797.745	1.04	
798.137	1.04	
798.529	1.04	
798.921	1.04	
799.314	1.05	
799.706	1.05	
800.098	1.05	
800.49	1.03	
800.882	1.04	
801.273	1.04	
801.665	1.03	
802.057	1.03	
802.449	1.04	
802.84	1.03	
803.232	1.05	
803.623	1.03	
804.015	1.03	
804.406	1.05	
804.798	1.03	
805.189	1.03	
805.58	1.04	
805.972	1.01	
806.363	1.02	
806.754	1.03	
807.145	1.01	
807.536	1.02	
807.927	1.03	
808.318	1.02	
808.709	1.02	
809.099	1.03	
809.49	1.03	
809.881	1.03	
810.271	1.02	
810.662	1.03	
811.053	1.01	
811.443	1.02	
811.833	1.02	
812.224	1.01	
812.614	1.01	
813.004	1.02	
813.395	1.02	
813.785	1.01	
814.175	1.04	
814.565	1.01	
814.955	1.01	
815.345	1	
815.735	1	
816.124	1.02	
816.514	1.01	
816.904	1.01	
817.294	1.01	
817.683	1.01	
818.073	1	
818.462	1.01	
818.852	1.01	
819.241	1.01	
819.63	1.01	
820.02	1.01	
820.409	1	
820.798	1	
821.187	1	
821.576	0.99	
821.965	1	
822.354	1.01	
822.743	0.99	
823.132	0.99	
823.521	1	
823.91	1	
824.298	0.99	
824.687	0.99	
825.076	0.99	
825.464	1	
825.853	0.99	
826.241	0.99	
826.629	0.99	
827.018	0.97	
827.406	1	
827.794	0.99	
828.182	0.99	
828.571	0.98	
828.959	0.98	
829.347	0.98	
829.735	1	
830.122	0.95	
830.51	0.96	
830.898	0.96	
831.286	0.98	
831.673	0.96	
832.061	0.97	
832.449	0.96	
832.836	0.96	
833.224	0.97	
833.611	0.97	
833.998	0.97	
834.386	0.97	
834.773	0.96	
835.16	0.94	
835.547	0.96	
835.934	0.96	
836.321	0.96	
836.708	0.94	
837.095	0.94	
837.482	0.96	
837.869	0.96	
838.256	0.95	
838.642	0.95	
839.029	0.95	
839.416	0.96	
839.802	0.94	
840.189	0.93	
840.575	0.93	
840.962	0.93	
841.348	0.92	
841.734	0.94	
842.12	0.93	
842.507	0.93	
842.893	0.93	
843.279	0.91	
843.665	0.92	
844.051	0.91	
844.437	0.92	
844.822	0.92	
845.208	0.92	
845.594	0.92	
845.98	0.91	
846.365	0.91	
846.751	0.91	
847.136	0.92	
847.522	0.9	
847.907	0.9	
848.293	0.91	
848.678	0.92	
849.063	0.89	
849.448	0.88	
849.834	0.89	
850.219	0.9	
850.604	0.91	
850.989	0.89	
851.374	0.9	
851.758	0.89	
852.143	0.89	
852.528	0.88	
852.913	0.88	
853.297	0.86	
853.682	0.9	
854.067	0.88	
854.451	0.88	
854.836	0.88	
855.22	0.86	
855.604	0.87	
855.989	0.87	
856.373	0.85	
856.757	0.86	
857.141	0.87	
857.525	0.86	
857.909	0.85	
858.293	0.86	
858.677	0.86	
859.061	0.86	
859.445	0.86	
859.828	0.86	
860.212	0.84	
860.596	0.85	
860.979	0.85	
861.363	0.85	
861.746	0.85	
862.13	0.83	
862.513	0.86	
862.896	0.84	
863.28	0.83	
863.663	0.83	
864.046	0.82	
864.429	0.84	
864.812	0.83	
865.195	0.82	
865.578	0.82	
865.961	0.81	
866.344	0.81	
866.726	0.81	
867.109	0.83	
867.492	0.82	
867.874	0.8	
868.257	0.82	
868.639	0.81	
869.022	0.82	
869.404	0.8	
869.787	0.79	
870.169	0.81	
870.551	0.79	
870.933	0.8	
871.315	0.79	
871.697	0.79	
872.079	0.78	
872.461	0.77	
872.843	0.78	
873.225	0.78	
873.607	0.78	
873.989	0.79	
874.37	0.76	
874.752	0.76	
875.134	0.77	
875.515	0.78	
875.896	0.78	
876.278	0.77	
876.659	0.77	
877.041	0.77	
877.422	0.75	
877.803	0.77	
878.184	0.76	
878.565	0.75	
878.946	0.75	
879.327	0.76	
879.708	0.76	
880.089	0.75	
880.47	0.75	
880.851	0.76	
881.231	0.77	
881.612	0.77	
881.993	0.77	
882.373	0.76	
882.754	0.77	
883.134	0.79	
883.514	0.76	
883.895	0.79	
884.275	0.78	
884.655	0.78	
885.035	0.78	
885.415	0.78	
885.795	0.78	
886.175	0.79	
886.555	0.8	
886.935	0.78	
887.315	0.79	
887.695	0.8	
888.075	0.79	
888.454	0.79	
888.834	0.79	
889.213	0.8	
889.593	0.79	
889.972	0.8	
890.352	0.79	
890.731	0.81	
891.11	0.8	
891.49	0.79	
891.869	0.81	
892.248	0.8	
892.627	0.78	
893.006	0.77	
893.385	0.77	
893.764	0.75	
894.143	0.76	
894.522	0.75	
894.9	0.75	
895.279	0.76	
895.658	0.73	
896.036	0.72	
896.415	0.72	
896.793	0.73	
897.172	0.71	
897.55	0.71	
897.928	0.69	
898.307	0.7	
898.685	0.7	
899.063	0.68	
899.441	0.68	
899.819	0.66	
900.197	0.66	
900.575	0.66	
900.953	0.64	
901.331	0.65	
901.708	0.64	
902.086	0.62	
902.464	0.62	
902.841	0.62	
903.219	0.62	
903.596	0.6	
903.974	0.59	
904.351	0.58	
904.729	0.6	
905.106	0.58	
905.483	0.58	
905.86	0.58	
906.237	0.58	
906.614	0.56	
906.991	0.57	
907.368	0.55	
907.745	0.53	
908.122	0.55	
908.499	0.52	
908.875	0.54	
909.252	0.52	
909.629	0.52	
910.005	0.52	
910.382	0.51	
910.758	0.51	
911.135	0.51	
911.511	0.48	
911.887	0.49	
912.264	0.49	
912.64	0.49	
913.016	0.47	
913.392	0.47	
913.768	0.47	
914.144	0.46	
914.52	0.46	
914.896	0.45	
915.271	0.45	
915.647	0.44	
916.023	0.44	
916.398	0.43	
916.774	0.42	
917.15	0.44	
917.525	0.41	
917.9	0.42	
918.276	0.41	
918.651	0.41	
919.026	0.4	
919.402	0.39	
919.777	0.38	
920.152	0.41	
920.527	0.38	
920.902	0.36	
921.277	0.35	
921.652	0.37	
922.026	0.36	
922.401	0.36	
922.776	0.34	
923.15	0.35	
923.525	0.33	
923.9	0.33	
924.274	0.32	
924.648	0.31	
925.023	0.32	
925.397	0.31	
925.771	0.31	
926.146	0.3	
926.52	0.31	
926.894	0.29	
927.268	0.29	
927.642	0.27	
928.016	0.28	
928.39	0.26	
928.764	0.27	
929.137	0.25	
929.511	0.24	
929.885	0.25	
930.258	0.25	
930.632	0.24	
931.005	0.22	
931.379	0.2	
931.752	0.2	
932.125	0.2	
932.499	0.22	
932.872	0.19	
933.245	0.19	
933.618	0.19	
933.991	0.18	
934.364	0.17	
934.737	0.17	
935.11	0.18	
935.483	0.16	
935.856	0.15	
936.228	0.15	
936.601	0.14	
936.974	0.12	
937.346	0.13	
937.719	0.11	
938.091	0.12	
938.464	0.11	
938.836	0.1	
939.208	0.1	
939.58	0.1	
939.953	0.09	
940.325	0.08	
940.697	0.08	
941.069	0.08	
941.441	0.08	
941.813	0.08	
942.184	0.07	
942.556	0.05	
942.928	0.05	
943.3	0.05	
943.671	0.05	
944.043	0.04	
944.414	0.04	
944.786	0.02	
945.157	0.03	
945.529	0.01	
945.9	0.02	
946.271	0.01	
946.642	-0.01	
947.013	-0.01	
947.384	-0	
947.756	-0.03	
948.126	-0.01	
948.497	-0.04	
948.868	-0.05	
949.239	-0.04	
949.61	-0.07	
949.98	-0.07	
950.351	-0.09	
950.722	-0.05	
951.092	-0.06	
951.463	-0.07	
951.833	-0.1	
952.203	-0.09	
952.574	-0.09	
952.944	-0.1	
953.314	-0.11	
953.684	-0.11	
954.054	-0.12	
954.424	-0.1	
954.794	-0.14	
955.164	-0.12	
955.534	-0.12	
955.904	-0.16	
956.274	-0.13	
956.643	-0.14	
957.013	-0.16	
957.383	-0.18	
957.752	-0.16	
958.122	-0.19	
958.491	-0.19	
958.86	-0.17	
959.23	-0.2	
959.599	-0.19	
959.968	-0.19	
960.337	-0.21	
960.706	-0.2	
961.075	-0.25	
961.444	-0.24	
961.813	-0.21	
962.182	-0.23	
962.551	-0.22	
962.92	-0.26	
963.288	-0.23	
963.657	-0.24	
964.026	-0.26	
964.394	-0.27	
964.763	-0.26	
965.131	-0.27	
965.499	-0.31	
965.868	-0.3	
966.236	-0.26	
966.604	-0.28	
966.972	-0.29	
967.34	-0.26	
967.708	-0.26	
968.076	-0.28	
968.444	-0.32	
968.812	-0.33	
969.18	-0.3	
969.548	-0.27	
969.915	-0.27	
970.283	-0.32	
970.651	-0.34	
971.018	-0.35	
971.386	-0.32	
971.753	-0.3	
972.121	-0.34	
972.488	-0.36	
972.855	-0.36	
973.222	-0.34	
973.589	-0.33	
973.957	-0.37	
974.324	-0.36	
974.691	-0.36	
975.057	-0.38	
975.424	-0.34	
975.791	-0.38	
976.158	-0.36	
976.525	-0.4	
976.891	-0.39	
977.258	-0.39	
977.624	-0.39	
977.991	-0.41	
978.357	-0.45	
978.724	-0.43	
979.09	-0.39	
979.456	-0.39	
979.822	-0.44	
980.189	-0.45	
980.555	-0.44	
980.921	-0.45	
981.287	-0.42	
981.653	-0.41	
982.019	-0.44	
982.384	-0.47	
982.75	-0.43	
983.116	-0.47	
983.481	-0.45	
983.847	-0.47	
984.213	-0.48	
984.578	-0.48	
984.944	-0.42	
985.309	-0.46	
985.674	-0.48	
986.039	-0.47	
986.405	-0.5	
986.77	-0.5	
987.135	-0.49	
987.5	-0.56	
987.865	-0.49	
988.23	-0.53	
988.595	-0.59	
988.96	-0.46	
989.324	-0.54	
989.689	-0.56	
990.054	-0.51	
990.418	-0.57	
990.783	-0.52	
991.147	-0.55	
991.512	-0.56	
991.876	-0.57	
992.24	-0.61	
992.605	-0.61	
992.969	-0.57	
993.333	-0.59	
993.697	-0.53	
994.061	-0.53	
994.425	-0.62	
994.789	-0.59	
995.153	-0.64	
995.517	-0.6	
995.881	-0.65	
996.244	-0.63	
996.608	-0.59	
996.971	-0.63	
997.335	-0.6	
997.698	-0.59	
998.062	-0.64	
998.425	-0.64	
998.789	-0.59	
999.152	-0.65	
999.515	-0.68	
999.878	-0.65	
1000.241	-0.62	
1000.604	-0.69	
1000.967	-0.64	
1001.33	-0.71	
1001.693	-0.64	
1002.056	-0.67	
1002.419	-0.76	
1002.781	-0.69	
1003.144	-0.72	
1003.507	-0.69	
1003.869	-0.67	
1004.232	-0.71	
1004.594	-0.6	
1004.956	-0.67	
1005.319	-0.67	
1005.681	-0.75	
1006.043	-0.69	
1006.405	-0.65	
1006.767	-0.76	
1007.129	-0.75	
1007.491	-0.74	
1007.853	-0.83	
1008.215	-0.84	
1008.577	-0.71	
1008.939	-0.75	
1009.3	-0.82	
1009.662	-0.82	
1010.024	-0.83	
1010.385	-0.79	
1010.747	-0.72	
1011.108	-0.87	
1011.469	-0.79	
1011.831	-0.82	
1012.192	-0.8	
1012.553	-0.73	
1012.914	-0.78	
1013.275	-0.76	
1013.636	-0.77	
1013.997	-0.71	
1014.358	-0.95	
1014.719	-0.92	
1015.08	-0.89	
1015.441	-0.9	
1015.801	-0.81	
1016.162	-0.78	
1016.523	-0.81	
1016.883	-0.88	
1017.244	-0.84	
1017.604	-0.8	
1017.964	-0.79	
1018.325	-0.85	
1018.685	-0.97	
1019.045	-0.99	
1019.405	-0.95	
1019.765	-0.9	
1020.125	-0.87	
1020.485	-0.89	
1020.845	-0.91	
1021.205	-0.87	
1021.565	-0.78	
1021.925	-0.9	
1022.284	-0.86	
1022.644	-0.88	
1023.004	-0.84	
1023.363	-0.93	
1023.723	-1.03	
1024.082	-0.95	
1024.441	-0.95	
1024.801	-0.89	
1025.16	-0.89	
1025.519	-1.07	
1025.878	-0.82	
1026.237	-1.12	
1026.596	-0.94	
1026.955	-0.97	
1027.314	-0.87	
1027.673	-0.91	
1028.032	-0.9	
1028.39	-0.81	
1028.749	-0.99	
1029.108	-0.92	
1029.466	-1.03	
1029.825	-1.02	
1030.183	-0.96	
1030.542	-1.01	
1030.9	-0.87	
1031.258	-1.13	
1031.616	-0.89	
1031.975	-0.89	
1032.333	-0.89	
