Absorbance:209		
187.658	-0.63	
188.124	-0.63	
188.589	-0.63	
189.055	-0	
189.521	-0.95	
189.987	-0	
190.452	-0	
190.918	-0.28	
191.384	0.23	
191.849	-0	
192.314	-0.07	
192.78	-0	
193.245	-0.7	
193.711	0.62	
194.176	1	
194.641	-0	
195.106	0.02	
195.571	0.13	
196.037	0.85	
196.502	0.01	
196.967	-0.1	
197.431	0.08	
197.896	-0	
198.361	1.67	
198.826	1.48	
199.291	1.46	
199.755	1.47	
200.22	1.45	
200.685	1.45	
201.149	1.45	
201.614	1.48	
202.078	1.5	
202.543	1.5	
203.007	1.47	
203.471	1.52	
203.936	1.49	
204.4	1.54	
204.864	1.5	
205.328	1.55	
205.792	1.56	
206.256	1.54	
206.72	1.55	
207.184	1.57	
207.648	1.54	
208.112	1.53	
208.576	1.54	
209.039	1.54	
209.503	1.54	
209.967	1.51	
210.43	1.51	
210.894	1.49	
211.357	1.49	
211.821	1.48	
212.284	1.47	
212.747	1.46	
213.211	1.43	
213.674	1.41	
214.137	1.35	
214.6	1.33	
215.063	1.3	
215.526	1.27	
215.989	1.21	
216.452	1.19	
216.915	1.11	
217.378	1.06	
217.841	1	
218.304	0.95	
218.767	0.9	
219.229	0.84	
219.692	0.79	
220.154	0.72	
220.617	0.66	
221.079	0.62	
221.542	0.56	
222.004	0.52	
222.467	0.48	
222.929	0.43	
223.391	0.38	
223.853	0.35	
224.315	0.32	
224.777	0.29	
225.239	0.26	
225.701	0.24	
226.163	0.22	
226.625	0.2	
227.087	0.17	
227.549	0.15	
228.011	0.14	
228.472	0.12	
228.934	0.12	
229.396	0.1	
229.857	0.1	
230.319	0.08	
230.78	0.08	
231.242	0.08	
231.703	0.07	
232.164	0.07	
232.626	0.06	
233.087	0.06	
233.548	0.06	
234.009	0.07	
234.47	0.06	
234.931	0.05	
235.392	0.05	
235.853	0.05	
236.314	0.05	
236.775	0.05	
237.235	0.04	
237.696	0.05	
238.157	0.04	
238.618	0.04	
239.078	0.04	
239.539	0.04	
239.999	0.04	
240.46	0.04	
240.92	0.03	
241.38	0.03	
241.841	0.03	
242.301	0.03	
242.761	0.03	
243.221	0.02	
243.681	0.03	
244.141	0.02	
244.601	0.02	
245.061	0.02	
245.521	0.02	
245.981	0.01	
246.441	0.01	
246.901	0.01	
247.36	0.01	
247.82	0.01	
248.28	0	
248.739	0	
249.199	-0	
249.658	0	
250.117	-0	
250.577	-0	
251.036	-0	
251.495	-0	
251.955	-0	
252.414	-0	
252.873	-0	
253.332	-0	
253.791	-0	
254.25	-0	
254.709	-0	
255.168	-0	
255.627	-0	
256.085	-0	
256.544	-0	
257.003	-0	
257.461	-0	
257.92	-0	
258.379	-0	
258.837	-0	
259.295	-0	
259.754	-0	
260.212	-0	
260.67	-0	
261.129	-0	
261.587	-0	
262.045	-0	
262.503	-0	
262.961	-0	
263.419	-0	
263.877	-0	
264.335	-0	
264.793	-0	
265.251	-0	
265.708	-0	
266.166	-0	
266.624	-0	
267.081	-0	
267.539	-0	
267.996	-0	
268.454	-0	
268.911	-0	
269.369	-0	
269.826	-0	
270.283	-0	
270.74	-0	
271.198	-0	
271.655	-0	
272.112	-0	
272.569	-0	
273.026	-0	
273.483	-0	
273.94	-0	
274.396	-0	
274.853	-0	
275.31	-0	
275.767	-0	
276.223	-0	
276.68	-0	
277.136	-0	
277.593	-0	
278.049	-0	
278.506	-0	
278.962	-0	
279.418	-0	
279.874	-0	
280.331	-0	
280.787	-0	
281.243	-0	
281.699	-0	
282.155	-0	
282.611	-0	
283.067	-0	
283.522	-0	
283.978	-0	
284.434	-0	
284.89	-0	
285.345	-0	
285.801	-0	
286.256	-0	
286.712	-0	
287.167	-0	
287.623	-0	
288.078	-0	
288.533	-0	
288.989	-0	
289.444	-0	
289.899	-0	
290.354	-0	
290.809	-0	
291.264	-0	
291.719	-0	
292.174	-0	
292.629	-0	
293.084	-0	
293.538	-0	
293.993	-0	
294.448	-0	
294.902	-0	
295.357	-0	
295.811	-0	
296.266	-0	
296.72	-0	
297.174	-0	
297.629	-0	
298.083	-0	
298.537	-0	
298.991	-0	
299.446	-0	
299.9	-0	
300.354	-0	
300.808	-0	
301.261	-0	
301.715	-0	
302.169	-0	
302.623	-0	
303.077	-0	
303.53	-0	
303.984	-0	
304.437	-0	
304.891	-0	
305.344	-0	
305.798	-0	
306.251	-0	
306.704	-0	
307.158	-0	
307.611	-0	
308.064	-0	
308.517	-0	
308.97	-0	
309.423	-0	
309.876	-0	
310.329	-0	
310.782	-0	
311.235	-0	
311.688	-0	
312.14	-0	
312.593	-0	
313.046	-0	
313.498	-0	
313.951	-0	
314.403	-0	
314.856	-0	
315.308	-0	
315.76	-0	
316.213	-0	
316.665	-0	
317.117	-0	
317.569	-0	
318.021	-0	
318.473	-0	
318.925	-0	
319.377	-0	
319.829	-0	
320.281	-0	
320.733	-0	
321.184	-0	
321.636	-0	
322.088	-0	
322.539	-0	
322.991	-0	
323.442	-0	
323.894	-0	
324.345	-0	
324.796	-0	
325.248	-0	
325.699	-0	
326.15	-0	
326.601	-0	
327.052	-0	
327.503	-0	
327.954	-0	
328.405	-0	
328.856	-0	
329.307	-0	
329.758	-0	
330.208	-0	
330.659	-0	
331.11	-0	
331.56	-0	
332.011	-0	
332.461	-0	
332.912	-0	
333.362	-0	
333.813	-0	
334.263	-0	
334.713	-0	
335.163	-0	
335.613	-0	
336.063	-0	
336.513	-0	
336.963	-0	
337.413	-0	
337.863	-0	
338.313	-0	
338.763	-0	
339.213	-0	
339.662	-0	
340.112	-0	
340.562	-0	
341.011	-0	
341.461	-0	
341.91	-0	
342.359	-0	
342.809	-0	
343.258	-0	
343.707	0	
344.156	-0	
344.606	0	
345.055	0	
345.504	0	
345.953	0	
346.402	0	
346.85	0	
347.299	0	
347.748	0	
348.197	0.01	
348.645	0.01	
349.094	0.01	
349.543	0.01	
349.991	0.01	
350.44	0.01	
350.888	0.01	
351.336	0.01	
351.785	0.01	
352.233	0.01	
352.681	0.01	
353.13	0.02	
353.578	0.02	
354.026	0.02	
354.474	0.02	
354.922	0.02	
355.37	0.02	
355.818	0.02	
356.265	0.02	
356.713	0.02	
357.161	0.03	
357.609	0.02	
358.056	0.02	
358.504	0.02	
358.951	0.03	
359.399	0.03	
359.846	0.03	
360.294	0.03	
360.741	0.03	
361.188	0.03	
361.635	0.03	
362.083	0.03	
362.53	0.03	
362.977	0.03	
363.424	0.03	
363.871	0.03	
364.318	0.03	
364.765	0.03	
365.211	0.04	
365.658	0.04	
366.105	0.04	
366.552	0.04	
366.998	0.04	
367.445	0.04	
367.891	0.04	
368.338	0.04	
368.784	0.03	
369.231	0.04	
369.677	0.04	
370.123	0.04	
370.569	0.04	
371.016	0.04	
371.462	0.04	
371.908	0.05	
372.354	0.05	
372.8	0.05	
373.246	0.05	
373.692	0.05	
374.137	0.06	
374.583	0.05	
375.029	0.05	
375.475	0.06	
375.92	0.06	
376.366	0.05	
376.811	0.05	
377.257	0.05	
377.702	0.05	
378.147	0.05	
378.593	0.05	
379.038	0.04	
379.483	0.04	
379.928	0.04	
380.374	0.04	
380.819	0.04	
381.264	0.03	
381.709	0.04	
382.153	0.04	
382.598	0.04	
383.043	0.04	
383.488	0.05	
383.933	0.05	
384.377	0.05	
384.822	0.05	
385.266	0.06	
385.711	0.06	
386.155	0.06	
386.6	0.06	
387.044	0.06	
387.488	0.07	
387.933	0.07	
388.377	0.06	
388.821	0.07	
389.265	0.06	
389.709	0.06	
390.153	0.06	
390.597	0.06	
391.041	0.07	
391.485	0.07	
391.929	0.07	
392.372	0.07	
392.816	0.07	
393.26	0.06	
393.703	0.06	
394.147	0.05	
394.59	0.05	
395.034	0.05	
395.477	0.06	
395.921	0.07	
396.364	0.07	
396.807	0.08	
397.25	0.08	
397.693	0.08	
398.137	0.08	
398.58	0.07	
399.023	0.07	
399.466	0.06	
399.908	0.06	
400.351	0.05	
400.794	0.05	
401.237	0.06	
401.679	0.07	
402.122	0.08	
402.565	0.08	
403.007	0.09	
403.45	0.09	
403.892	0.09	
404.334	0.09	
404.777	0.09	
405.219	0.09	
405.661	0.09	
406.103	0.09	
406.546	0.1	
406.988	0.09	
407.43	0.09	
407.872	0.09	
408.314	0.1	
408.755	0.1	
409.197	0.1	
409.639	0.1	
410.081	0.1	
410.522	0.1	
410.964	0.1	
411.406	0.1	
411.847	0.1	
412.289	0.1	
412.73	0.1	
413.171	0.1	
413.613	0.1	
414.054	0.1	
414.495	0.1	
414.936	0.1	
415.377	0.11	
415.818	0.1	
416.259	0.11	
416.7	0.11	
417.141	0.11	
417.582	0.11	
418.023	0.11	
418.464	0.11	
418.904	0.11	
419.345	0.11	
419.786	0.11	
420.226	0.11	
420.667	0.11	
421.107	0.11	
421.547	0.11	
421.988	0.1	
422.428	0.1	
422.868	0.09	
423.308	0.09	
423.749	0.09	
424.189	0.09	
424.629	0.09	
425.069	0.1	
425.509	0.1	
425.949	0.11	
426.388	0.11	
426.828	0.11	
427.268	0.11	
427.708	0.11	
428.147	0.11	
428.587	0.12	
429.026	0.12	
429.466	0.11	
429.905	0.11	
430.344	0.11	
430.784	0.1	
431.223	0.09	
431.662	0.09	
432.101	0.09	
432.541	0.09	
432.98	0.09	
433.419	0.1	
433.858	0.11	
434.296	0.11	
434.735	0.11	
435.174	0.12	
435.613	0.12	
436.052	0.11	
436.49	0.12	
436.929	0.12	
437.367	0.11	
437.806	0.11	
438.244	0.1	
438.683	0.11	
439.121	0.12	
439.559	0.11	
439.998	0.11	
440.436	0.12	
440.874	0.12	
441.312	0.11	
441.75	0.12	
442.188	0.12	
442.626	0.11	
443.064	0.12	
443.502	0.12	
443.939	0.12	
444.377	0.11	
444.815	0.11	
445.253	0.11	
445.69	0.11	
446.128	0.11	
446.565	0.1	
447.002	0.1	
447.44	0.11	
447.877	0.1	
448.314	0.1	
448.752	0.11	
449.189	0.11	
449.626	0.1	
450.063	0.11	
450.5	0.11	
450.937	0.11	
451.374	0.11	
451.811	0.11	
452.248	0.11	
452.684	0.11	
453.121	0.11	
453.558	0.11	
453.994	0.11	
454.431	0.11	
454.867	0.12	
455.304	0.12	
455.74	0.12	
456.176	0.12	
456.613	0.12	
457.049	0.12	
457.485	0.12	
457.921	0.12	
458.357	0.12	
458.793	0.12	
459.229	0.12	
459.665	0.12	
460.101	0.12	
460.537	0.12	
460.973	0.12	
461.408	0.12	
461.844	0.11	
462.28	0.11	
462.715	0.11	
463.151	0.12	
463.586	0.12	
464.022	0.12	
464.457	0.13	
464.892	0.12	
465.328	0.12	
465.763	0.11	
466.198	0.11	
466.633	0.1	
467.068	0.11	
467.503	0.1	
467.938	0.1	
468.373	0.1	
468.808	0.11	
469.243	0.11	
469.677	0.11	
470.112	0.11	
470.547	0.12	
470.981	0.12	
471.416	0.12	
471.85	0.12	
472.285	0.11	
472.719	0.12	
473.153	0.12	
473.588	0.12	
474.022	0.11	
474.456	0.11	
474.89	0.11	
475.324	0.1	
475.758	0.1	
476.192	0.09	
476.626	0.09	
477.06	0.08	
477.494	0.09	
477.928	0.09	
478.361	0.09	
478.795	0.08	
479.229	0.08	
479.662	0.09	
480.096	0.09	
480.529	0.09	
480.962	0.08	
481.396	0.08	
481.829	0.08	
482.262	0.06	
482.695	0.06	
483.129	0.05	
483.562	0.05	
483.995	0.05	
484.428	0.05	
484.861	0.05	
485.294	0.04	
485.726	0.04	
486.159	0.03	
486.592	0.02	
487.024	0.01	
487.457	0	
487.89	0	
488.322	0	
488.755	0	
489.187	0.01	
489.619	0.02	
490.052	0.02	
490.484	0.03	
490.916	0.03	
491.348	0.03	
491.78	0.03	
492.212	0.03	
492.644	0.04	
493.076	0.04	
493.508	0.03	
493.94	0.04	
494.372	0.03	
494.804	0.03	
495.235	0.03	
495.667	0.03	
496.098	0.03	
496.53	0.02	
496.961	0.02	
497.393	0.01	
497.824	0.01	
498.256	0.01	
498.687	0.01	
499.118	0.01	
499.549	0.02	
499.98	0.02	
500.411	0.02	
500.842	0.03	
501.273	0.03	
501.704	0.03	
502.135	0.03	
502.566	0.02	
502.997	0.02	
503.427	0.02	
503.858	0.02	
504.289	0.01	
504.719	0.01	
505.15	0.01	
505.58	0.01	
506.01	0.01	
506.441	0.01	
506.871	0.01	
507.301	0.01	
507.731	0.01	
508.161	0.01	
508.592	0.01	
509.022	0.02	
509.451	0.02	
509.881	0.02	
510.311	0.02	
510.741	0.02	
511.171	0.02	
511.6	0.02	
512.03	0.02	
512.46	0.02	
512.889	0.02	
513.319	0.01	
513.748	0.02	
514.178	0.02	
514.607	0.02	
515.036	0.02	
515.465	0.02	
515.895	0.02	
516.324	0.03	
516.753	0.03	
517.182	0.03	
517.611	0.03	
518.04	0.03	
518.469	0.03	
518.897	0.02	
519.326	0.02	
519.755	0.02	
520.183	0.02	
520.612	0.03	
521.041	0.02	
521.469	0.03	
521.898	0.03	
522.326	0.03	
522.754	0.03	
523.183	0.03	
523.611	0.03	
524.039	0.03	
524.467	0.03	
524.895	0.03	
525.323	0.03	
525.751	0.03	
526.179	0.03	
526.607	0.03	
527.035	0.03	
527.463	0.03	
527.89	0.03	
528.318	0.03	
528.745	0.03	
529.173	0.03	
529.601	0.03	
530.028	0.03	
530.455	0.03	
530.883	0.03	
531.31	0.03	
531.737	0.02	
532.164	0.03	
532.592	0.03	
533.019	0.03	
533.446	0.03	
533.873	0.03	
534.3	0.03	
534.726	0.02	
535.153	0.02	
535.58	0.02	
536.007	0.02	
536.433	0.02	
536.86	0.02	
537.287	0.01	
537.713	0.02	
538.139	0.02	
538.566	0.02	
538.992	0.02	
539.418	0.01	
539.845	0.01	
540.271	0.01	
540.697	0.01	
541.123	0	
541.549	0.01	
541.975	0.01	
542.401	0.01	
542.827	0.01	
543.253	0.01	
543.678	0.01	
544.104	0.01	
544.53	0.01	
544.955	0.01	
545.381	0.01	
545.806	0	
546.232	0	
546.657	-0	
547.083	0	
547.508	-0	
547.933	-0	
548.358	-0	
548.783	-0	
549.209	-0	
549.634	-0	
550.059	-0	
550.483	-0	
550.908	-0	
551.333	0	
551.758	0	
552.183	0	
552.607	0	
553.032	-0	
553.456	-0	
553.881	-0	
554.305	-0	
554.73	-0	
555.154	-0	
555.578	-0	
556.003	-0	
556.427	-0	
556.851	-0	
557.275	-0	
557.699	-0	
558.123	-0	
558.547	-0	
558.971	-0	
559.395	-0	
559.818	0	
560.242	0	
560.666	0	
561.089	-0	
561.513	-0	
561.936	-0	
562.36	-0	
562.783	-0	
563.206	-0	
563.63	-0	
564.053	-0	
564.476	-0	
564.899	-0	
565.322	-0	
565.745	-0	
566.168	-0	
566.591	-0	
567.014	-0	
567.437	-0	
567.86	-0	
568.282	-0	
568.705	-0	
569.128	-0	
569.55	-0	
569.973	-0	
570.395	-0	
570.817	-0	
571.24	-0	
571.662	-0	
572.084	-0	
572.506	-0	
572.928	-0	
573.35	-0	
573.772	-0	
574.194	-0	
574.616	-0	
575.038	-0	
575.46	-0	
575.882	-0	
576.303	-0	
576.725	-0	
577.147	-0	
577.568	-0	
577.99	-0	
578.411	-0	
578.832	-0	
579.254	-0	
579.675	-0	
580.096	-0	
580.517	-0	
580.938	-0	
581.36	-0	
581.781	-0	
582.201	-0	
582.622	-0	
583.043	-0	
583.464	-0	
583.885	-0	
584.305	-0	
584.726	-0	
585.147	-0	
585.567	-0	
585.988	-0	
586.408	-0	
586.828	-0	
587.249	-0	
587.669	-0	
588.089	-0	
588.509	-0	
588.929	-0	
589.349	-0	
589.769	-0	
590.189	-0	
590.609	-0	
591.029	-0	
591.449	-0	
591.868	-0	
592.288	-0	
592.708	-0	
593.127	-0	
593.547	-0	
593.966	-0	
594.386	-0	
594.805	-0	
595.224	-0	
595.643	-0	
596.063	-0	
596.482	-0	
596.901	-0	
597.32	-0	
597.739	-0	
598.158	-0	
598.577	-0	
598.995	-0	
599.414	-0	
599.833	-0	
600.252	-0	
600.67	-0	
601.089	-0	
601.507	-0	
601.926	-0	
602.344	-0	
602.762	-0	
603.181	-0	
603.599	-0	
604.017	-0	
604.435	-0	
604.853	-0	
605.271	-0	
605.689	-0	
606.107	-0	
606.525	-0	
606.943	-0	
607.36	-0	
607.778	-0	
608.196	-0	
608.613	-0	
609.031	-0	
609.448	-0	
609.866	-0	
610.283	-0	
610.7	-0	
611.118	-0	
611.535	-0	
611.952	-0	
612.369	-0	
612.786	-0	
613.203	-0	
613.62	-0	
614.037	-0	
614.454	-0	
614.87	-0	
615.287	-0	
615.704	-0	
616.12	-0	
616.537	-0	
616.953	-0	
617.37	-0	
617.786	-0	
618.203	-0	
618.619	-0	
619.035	-0	
619.451	-0	
619.868	-0	
620.284	-0	
620.7	-0	
621.116	-0	
621.531	-0	
621.947	-0	
622.363	-0	
622.779	-0	
623.195	-0	
623.61	-0	
624.026	-0	
624.441	-0	
624.857	-0	
625.272	-0	
625.688	-0	
626.103	-0	
626.518	-0	
626.933	-0	
627.349	-0	
627.764	-0	
628.179	-0	
628.594	-0	
629.009	-0	
629.424	-0	
629.838	-0	
630.253	-0	
630.668	-0	
631.083	-0	
631.497	-0	
631.912	-0	
632.326	-0	
632.741	-0	
633.155	-0	
633.57	-0	
633.984	-0	
634.398	-0	
634.812	-0	
635.226	-0	
635.64	-0	
636.054	-0	
636.468	-0	
636.882	-0	
637.296	-0	
637.71	-0	
638.124	-0	
638.537	-0	
638.951	-0	
639.365	-0	
639.778	-0	
640.192	-0	
640.605	-0	
641.019	-0	
641.432	-0	
641.845	-0	
642.258	-0	
642.672	-0	
643.085	-0	
643.498	-0	
643.911	-0	
644.324	-0	
644.737	-0	
645.149	-0	
645.562	-0	
645.975	-0	
646.388	-0	
646.8	-0	
647.213	-0	
647.625	-0	
648.038	-0	
648.45	-0	
648.862	-0	
649.275	-0	
649.687	-0	
650.099	-0	
650.511	-0	
650.923	-0	
651.335	-0	
651.747	-0	
652.159	-0	
652.571	-0	
652.983	-0	
653.395	-0	
653.806	-0	
654.218	-0	
654.63	-0	
655.041	-0	
655.453	-0	
655.864	-0	
656.275	-0	
656.687	-0	
657.098	-0	
657.509	-0	
657.92	-0	
658.332	-0	
658.743	-0	
659.154	-0	
659.565	-0	
659.975	-0	
660.386	-0	
660.797	-0	
661.208	-0	
661.618	-0	
662.029	-0	
662.44	-0	
662.85	-0	
663.261	-0	
663.671	-0	
664.081	-0	
664.492	-0	
664.902	-0	
665.312	-0	
665.722	-0	
666.132	-0	
666.542	-0	
666.952	-0	
667.362	-0	
667.772	-0	
668.182	-0	
668.591	-0	
669.001	-0	
669.411	-0	
669.82	-0	
670.23	-0	
670.639	-0	
671.049	-0	
671.458	-0	
671.867	-0	
672.277	-0	
672.686	-0	
673.095	-0	
673.504	-0	
673.913	-0	
674.322	-0	
674.731	-0	
675.14	-0	
675.549	-0	
675.957	-0	
676.366	-0	
676.775	-0	
677.183	-0	
677.592	-0	
678	-0	
678.409	-0	
678.817	-0	
679.226	-0	
679.634	-0	
680.042	-0	
680.45	-0	
680.858	-0	
681.266	-0	
681.674	-0	
682.082	-0	
682.49	-0	
682.898	-0	
683.306	-0	
683.714	-0	
684.121	-0	
684.529	-0	
684.936	-0	
685.344	-0	
685.751	-0	
686.159	-0	
686.566	-0	
686.973	-0	
687.381	-0	
687.788	-0	
688.195	-0	
688.602	-0	
689.009	-0	
689.416	-0	
689.823	-0	
690.23	-0	
690.636	-0	
691.043	-0	
691.45	-0	
691.857	-0	
692.263	-0	
692.67	-0	
693.076	-0	
693.483	-0	
693.889	-0	
694.295	-0	
694.701	-0	
695.108	-0	
695.514	-0	
695.92	-0	
696.326	-0	
696.732	-0	
697.138	-0	
697.544	-0	
697.949	-0	
698.355	-0	
698.761	-0	
699.167	-0	
699.572	-0	
699.978	-0	
700.383	-0	
700.789	-0	
701.194	-0	
701.599	-0	
702.004	-0	
702.41	-0	
702.815	-0	
703.22	-0	
703.625	-0	
704.03	-0	
704.435	-0	
704.84	-0	
705.245	-0	
705.649	-0	
706.054	-0	
706.459	-0	
706.863	-0	
707.268	-0	
707.672	-0	
708.077	-0	
708.481	-0	
708.885	-0	
709.29	-0	
709.694	-0	
710.098	-0	
710.502	-0	
710.906	-0	
711.31	-0	
711.714	-0	
712.118	-0	
712.522	-0	
712.926	-0	
713.329	-0	
713.733	-0	
714.137	-0	
714.54	-0	
714.944	-0	
715.347	-0	
715.75	-0	
716.154	-0	
716.557	-0	
716.96	-0	
717.363	-0	
717.767	-0	
718.17	-0	
718.573	-0	
718.976	-0	
719.378	-0	
719.781	-0	
720.184	-0	
720.587	-0	
720.989	-0	
721.392	-0	
721.795	-0	
722.197	-0	
722.6	-0	
723.002	-0	
723.404	-0	
723.807	-0	
724.209	-0	
724.611	-0	
725.013	-0	
725.415	-0	
725.817	-0	
726.219	-0	
726.621	-0	
727.023	-0	
727.425	-0	
727.826	-0	
728.228	-0	
728.63	-0	
729.031	-0	
729.433	-0	
729.834	-0	
730.236	-0	
730.637	-0	
731.038	-0	
731.44	-0	
731.841	-0	
732.242	-0	
732.643	-0	
733.044	-0	
733.445	-0	
733.846	-0	
734.247	-0	
734.647	-0	
735.048	-0	
735.449	-0	
735.849	-0	
736.25	-0	
736.65	-0	
737.051	-0	
737.451	-0	
737.852	-0	
738.252	-0	
738.652	-0	
739.052	-0	
739.453	-0	
739.853	-0	
740.253	-0	
740.653	-0	
741.052	-0	
741.452	-0	
741.852	-0	
742.252	-0	
742.651	-0	
743.051	-0	
743.451	-0	
743.85	-0	
744.25	-0	
744.649	-0	
745.048	0	
745.448	0	
745.847	0	
746.246	0.01	
746.645	0.01	
747.044	0.01	
747.443	0.01	
747.842	0.01	
748.241	0.01	
748.64	0.01	
749.039	0.01	
749.438	0.01	
749.836	0.01	
750.235	0.01	
750.633	0	
751.032	0.01	
751.43	0	
751.829	0	
752.227	-0	
752.625	-0	
753.024	-0	
753.422	-0	
753.82	-0	
754.218	-0	
754.616	-0	
755.014	-0	
755.412	-0	
755.81	-0	
756.208	-0	
756.605	-0	
757.003	-0	
757.401	-0	
757.798	-0	
758.196	-0	
758.593	-0	
758.99	-0	
759.388	-0	
759.785	-0	
760.182	-0	
760.58	-0	
760.977	-0	
761.374	-0	
761.771	-0	
762.168	-0	
762.565	-0	
762.961	-0	
763.358	-0	
763.755	-0	
764.152	-0	
764.548	-0	
764.945	-0	
765.341	-0	
765.738	-0	
766.134	-0	
766.53	-0	
766.927	-0	
767.323	-0	
767.719	0	
768.115	0.01	
768.511	0.01	
768.907	0.01	
769.303	0.01	
769.699	0.01	
770.095	0.01	
770.491	0.01	
770.886	0.01	
771.282	0.01	
771.678	0.02	
772.073	0.02	
772.469	0.02	
772.864	0.02	
773.26	0.02	
773.655	0.02	
774.05	0.02	
774.445	0.02	
774.841	0.02	
775.236	0.03	
775.631	0.03	
776.026	0.03	
776.421	0.03	
776.816	0.03	
777.21	0.03	
777.605	0.03	
778	0.03	
778.395	0.03	
778.789	0.03	
779.184	0.03	
779.578	0.03	
779.973	0.03	
780.367	0.03	
780.761	0.03	
781.156	0.03	
781.55	0.03	
781.944	0.03	
782.338	0.03	
782.732	0.03	
783.126	0.03	
783.52	0.03	
783.914	0.03	
784.308	0.03	
784.701	0.03	
785.095	0.04	
785.489	0.04	
785.882	0.04	
786.276	0.04	
786.669	0.04	
787.063	0.04	
787.456	0.04	
787.85	0.04	
788.243	0.04	
788.636	0.04	
789.029	0.04	
789.422	0.04	
789.815	0.04	
790.208	0.04	
790.601	0.04	
790.994	0.05	
791.387	0.05	
791.78	0.05	
792.172	0.05	
792.565	0.05	
792.957	0.05	
793.35	0.05	
793.742	0.05	
794.135	0.05	
794.527	0.05	
794.919	0.05	
795.312	0.04	
795.704	0.04	
796.096	0.04	
796.488	0.04	
796.88	0.05	
797.272	0.05	
797.664	0.06	
798.056	0.06	
798.448	0.07	
798.839	0.07	
799.231	0.07	
799.623	0.07	
800.014	0.07	
800.406	0.07	
800.797	0.07	
801.189	0.08	
801.58	0.08	
801.971	0.08	
802.362	0.08	
802.754	0.08	
803.145	0.09	
803.536	0.08	
803.927	0.09	
804.318	0.09	
804.709	0.09	
805.099	0.09	
805.49	0.09	
805.881	0.09	
806.272	0.09	
806.662	0.09	
807.053	0.09	
807.443	0.09	
807.834	0.08	
808.224	0.08	
808.614	0.08	
809.005	0.09	
809.395	0.09	
809.785	0.09	
810.175	0.09	
810.565	0.09	
810.955	0.1	
811.345	0.1	
811.735	0.1	
812.125	0.1	
812.515	0.1	
812.904	0.1	
813.294	0.1	
813.684	0.1	
814.073	0.1	
814.463	0.1	
814.852	0.09	
815.241	0.1	
815.631	0.1	
816.02	0.1	
816.409	0.1	
816.798	0.11	
817.187	0.11	
817.576	0.11	
817.965	0.11	
818.354	0.1	
818.743	0.1	
819.132	0.11	
819.521	0.11	
819.909	0.11	
820.298	0.11	
820.686	0.12	
821.075	0.12	
821.463	0.11	
821.852	0.12	
822.24	0.11	
822.628	0.11	
823.017	0.12	
823.405	0.12	
823.793	0.12	
824.181	0.12	
824.569	0.12	
824.957	0.12	
825.345	0.12	
825.733	0.12	
826.12	0.13	
826.508	0.13	
826.896	0.12	
827.283	0.12	
827.671	0.13	
828.059	0.12	
828.446	0.12	
828.833	0.12	
829.221	0.12	
829.608	0.13	
829.995	0.13	
830.382	0.13	
830.769	0.13	
831.156	0.14	
831.543	0.14	
831.93	0.14	
832.317	0.14	
832.704	0.13	
833.091	0.13	
833.477	0.14	
833.864	0.14	
834.251	0.14	
834.637	0.14	
835.024	0.13	
835.41	0.13	
835.796	0.14	
836.183	0.14	
836.569	0.13	
836.955	0.14	
837.341	0.13	
837.727	0.13	
838.113	0.14	
838.499	0.14	
838.885	0.14	
839.271	0.14	
839.657	0.13	
840.043	0.14	
840.428	0.14	
840.814	0.14	
841.199	0.13	
841.585	0.13	
841.97	0.13	
842.356	0.13	
842.741	0.13	
843.126	0.13	
843.512	0.13	
843.897	0.13	
844.282	0.13	
844.667	0.12	
845.052	0.13	
845.437	0.13	
845.822	0.13	
846.206	0.13	
846.591	0.13	
846.976	0.13	
847.361	0.13	
847.745	0.13	
848.13	0.13	
848.514	0.13	
848.899	0.12	
849.283	0.12	
849.667	0.12	
850.051	0.12	
850.436	0.12	
850.82	0.12	
851.204	0.12	
851.588	0.12	
851.972	0.12	
852.356	0.12	
852.74	0.12	
853.123	0.11	
853.507	0.11	
853.891	0.11	
854.274	0.1	
854.658	0.12	
855.041	0.11	
855.425	0.11	
855.808	0.11	
856.192	0.11	
856.575	0.1	
856.958	0.1	
857.341	0.11	
857.724	0.09	
858.107	0.11	
858.49	0.11	
858.873	0.09	
859.256	0.1	
859.639	0.1	
860.022	0.09	
860.404	0.1	
860.787	0.09	
861.17	0.1	
861.552	0.09	
861.935	0.09	
862.317	0.09	
862.699	0.09	
863.082	0.08	
863.464	0.08	
863.846	0.09	
864.228	0.08	
864.61	0.07	
864.992	0.08	
865.374	0.08	
865.756	0.08	
866.138	0.08	
866.52	0.08	
866.902	0.07	
867.283	0.07	
867.665	0.08	
868.046	0.07	
868.428	0.07	
868.809	0.07	
869.191	0.07	
869.572	0.07	
869.953	0.07	
870.335	0.07	
870.716	0.06	
871.097	0.06	
871.478	0.06	
871.859	0.05	
872.24	0.06	
872.621	0.06	
873.001	0.06	
873.382	0.06	
873.763	0.06	
874.143	0.06	
874.524	0.06	
874.905	0.05	
875.285	0.04	
875.665	0.05	
876.046	0.05	
876.426	0.05	
876.806	0.04	
877.186	0.04	
877.567	0.03	
877.947	0.05	
878.327	0.04	
878.707	0.05	
879.086	0.03	
879.466	0.03	
879.846	0.03	
880.226	0.03	
880.605	0.03	
880.985	0.03	
881.365	0.05	
881.744	0.03	
882.124	0.04	
882.503	0.02	
882.882	0.03	
883.261	0.04	
883.641	0.04	
884.02	0.03	
884.399	0.01	
884.778	0.02	
885.157	0.03	
885.536	0.02	
885.915	0.03	
886.293	0.03	
886.672	0.03	
887.051	0.03	
887.429	0.03	
887.808	0.03	
888.186	0.02	
888.565	0.01	
888.943	0.03	
889.322	0.02	
889.7	0.03	
890.078	0.03	
890.456	0.02	
890.834	0.03	
891.212	0.01	
891.59	0.01	
891.968	0.01	
892.346	0.02	
892.724	0.02	
893.102	0.02	
893.479	0.02	
893.857	0.03	
894.235	0.02	
894.612	0.02	
894.99	0.02	
895.367	0.02	
895.744	0.03	
896.122	0.04	
896.499	0.03	
896.876	0.04	
897.253	0.02	
897.63	0.05	
898.007	0.03	
898.384	0.03	
898.761	0.02	
899.138	0.02	
899.515	0.03	
899.891	0.03	
900.268	0.03	
900.645	0.04	
901.021	0.02	
901.398	0.04	
901.774	0.04	
902.15	0.04	
902.527	0.05	
902.903	0.04	
903.279	0.03	
903.655	0.05	
904.031	0.04	
904.407	0.04	
904.783	0.05	
905.159	0.05	
905.535	0.05	
905.911	0.03	
906.287	0.06	
906.662	0.07	
907.038	0.07	
907.413	0.05	
907.789	0.04	
908.164	0.06	
908.54	0.06	
908.915	0.07	
909.29	0.05	
909.666	0.06	
910.041	0.07	
910.416	0.06	
910.791	0.09	
911.166	0.07	
911.541	0.08	
911.916	0.09	
912.29	0.06	
912.665	0.09	
913.04	0.08	
913.414	0.1	
913.789	0.06	
914.163	0.08	
914.538	0.1	
914.912	0.09	
915.287	0.09	
915.661	0.09	
916.035	0.08	
916.409	0.1	
916.783	0.07	
917.157	0.09	
917.531	0.08	
917.905	0.11	
918.279	0.1	
918.653	0.09	
919.027	0.1	
919.4	0.12	
919.774	0.09	
920.148	0.08	
920.521	0.12	
920.895	0.13	
921.268	0.12	
921.641	0.12	
922.015	0.11	
922.388	0.1	
922.761	0.1	
923.134	0.12	
923.507	0.1	
923.88	0.11	
924.253	0.1	
924.626	0.09	
924.999	0.12	
925.372	0.11	
925.744	0.14	
926.117	0.1	
926.489	0.1	
926.862	0.11	
927.234	0.12	
927.607	0.13	
927.979	0.11	
928.352	0.09	
928.724	0.11	
929.096	0.09	
929.468	0.12	
929.84	0.08	
930.212	0.15	
930.584	0.11	
930.956	0.11	
931.328	0.11	
931.7	0.13	
932.071	0.11	
932.443	0.12	
932.814	0.11	
933.186	0.11	
933.557	0.09	
933.929	0.17	
934.3	0.17	
934.672	0.11	
935.043	0.11	
935.414	0.06	
935.785	0.12	
936.156	0.13	
936.527	0.15	
936.898	0.11	
937.269	0.12	
937.64	0.17	
938.011	0.13	
938.381	0.16	
938.752	0.12	
939.123	0.12	
939.493	0.1	
939.864	0.13	
940.234	0.14	
940.604	0.13	
940.975	0.16	
941.345	0.17	
941.715	0.16	
942.085	0.12	
942.455	0.1	
942.825	0.15	
943.195	0.17	
943.565	0.12	
943.935	0.1	
944.305	0.15	
944.675	0.14	
945.044	0.17	
945.414	0.17	
945.783	0.15	
946.153	0.15	
946.522	0.14	
946.892	0.2	
947.261	0.17	
947.63	0.13	
947.999	0.15	
948.369	0.15	
948.738	0.18	
949.107	0.14	
949.476	0.2	
949.844	0.08	
950.213	0.17	
950.582	0.16	
950.951	0.11	
951.319	0.2	
951.688	0.15	
952.057	0.15	
952.425	0.11	
952.794	0.12	
953.162	0.18	
953.53	0.09	
953.898	0.26	
954.267	0.15	
954.635	0.13	
955.003	0.15	
955.371	0.18	
955.739	0.14	
956.107	0.13	
956.475	0.11	
956.842	0.19	
957.21	0.17	
957.578	0.16	
957.945	0.25	
958.313	0.13	
958.68	0.16	
959.048	0.21	
959.415	0.12	
959.783	0.17	
960.15	0.12	
960.517	0.12	
960.884	0.16	
961.251	0.18	
961.618	0.17	
961.985	0.13	
962.352	0.15	
962.719	0.25	
963.086	0.2	
963.452	0.22	
963.819	0.19	
964.186	0.16	
964.552	0.13	
964.919	0.13	
965.285	0.2	
965.652	0.22	
966.018	0.3	
966.384	0.28	
966.75	0.15	
967.116	0.18	
967.482	0.19	
967.848	0.26	
968.214	0.22	
968.58	0.12	
968.946	0.24	
969.312	0.2	
969.678	0.14	
970.043	0.17	
970.409	0.17	
970.774	0.14	
971.14	0.17	
971.505	0.26	
971.871	0.27	
972.236	0.22	
972.601	0.23	
972.967	0.21	
973.332	0.18	
973.697	0.18	
974.062	0.17	
974.427	0.16	
974.792	0.14	
975.156	0.12	
975.521	0.12	
975.886	0.21	
976.251	0.19	
976.615	0.12	
976.98	0.11	
977.344	0.26	
977.709	0.19	
978.073	0.16	
978.437	0.24	
978.802	0.18	
979.166	0.2	
979.53	0.22	
979.894	0.08	
980.258	0.2	
980.622	0.29	
980.986	0.17	
981.35	0.16	
981.713	0.25	
982.077	0.25	
982.441	0.19	
982.804	0.17	
983.168	0.19	
983.531	0.24	
983.895	0.19	
984.258	0.16	
984.621	0.2	
984.985	0.26	
985.348	0.06	
985.711	0.17	
986.074	0.28	
986.437	0.27	
986.8	0.26	
987.163	0.13	
987.526	0.22	
987.888	0.07	
988.251	0.24	
988.614	0.17	
988.976	0.2	
989.339	0.17	
989.701	0.36	
990.064	0.06	
990.426	0.11	
990.788	0.05	
991.151	0.17	
991.513	0.13	
991.875	0.13	
992.237	0.22	
992.599	0.36	
992.961	0.35	
993.323	0.27	
993.685	0.19	
994.046	0.12	
994.408	0.12	
994.77	0.17	
995.131	0.2	
995.493	0.19	
995.854	0.17	
996.216	0.13	
996.577	0.17	
996.938	0.14	
997.299	0.09	
997.661	0.13	
998.022	0.17	
998.383	0.12	
998.744	0.2	
999.105	0.21	
999.465	0.12	
999.826	0.13	
1000.187	0.15	
1000.548	0.23	
1000.908	0.16	
1001.269	0.18	
1001.629	0.14	
1001.99	0.04	
1002.35	0.16	
1002.711	0.09	
1003.071	0.16	
1003.431	0.24	
1003.791	0.2	
1004.151	0.12	
1004.511	0.21	
1004.871	0.39	
1005.231	0.12	
1005.591	0.12	
1005.951	0.07	
1006.311	0.11	
1006.67	0.12	
1007.03	-0	
1007.389	0.24	
1007.749	0.26	
1008.108	0.28	
1008.468	0.08	
1008.827	0.19	
1009.186	0.15	
1009.545	0.18	
1009.905	0.33	
1010.264	0.22	
1010.623	0.11	
1010.982	0.2	
1011.341	0.13	
1011.699	0.08	
1012.058	0.22	
1012.417	0.12	
1012.776	0.22	
1013.134	0.17	
1013.493	0.13	
1013.851	0.34	
1014.21	0.24	
1014.568	0.18	
1014.926	0.12	
1015.284	0.22	
1015.643	0.21	
1016.001	0.27	
1016.359	0.3	
1016.717	0.17	
1017.075	0.14	
1017.433	0.23	
1017.79	0.22	
1018.148	0.01	
1018.506	0.21	
1018.864	0.07	
1019.221	0.22	
1019.579	0.3	
1019.936	0.06	
1020.294	-0.01	
1020.651	0.12	
1021.008	-0.01	
1021.365	0.08	
1021.723	0.39	
1022.08	0.49	
1022.437	0.25	
1022.794	0.1	
1023.151	0.31	
1023.507	0.07	
1023.864	0.3	
1024.221	0.18	
1024.578	0.08	
1024.934	0.08	
1025.291	0.24	
1025.647	0.04	
1026.004	0	
1026.36	0.05	
1026.717	0.03	
1027.073	0.21	
1027.429	0.24	
1027.785	0.15	
1028.141	0.05	
1028.497	0.39	
1028.853	0.08	
1029.209	0.1	
1029.565	0.14	
1029.921	0.17	
1030.277	0.09	
1030.632	0.16	
1030.988	0.08	
1031.343	0.11	
1031.699	0.13	
1032.054	0.13	
1032.41	0.13	
