Absorbance:209		
187.658	-0	
188.124	-0	
188.589	-0	
189.055	-0	
189.521	-0.43	
189.987	-0	
190.452	-0.18	
190.918	-0.48	
191.384	-0.32	
191.849	-0	
192.314	-0.42	
192.78	-0	
193.245	-0	
193.711	-0	
194.176	-0.8	
194.641	-0.52	
195.106	0.29	
195.571	-0.03	
196.037	-0.15	
196.502	-0	
196.967	-1.17	
197.431	0.16	
197.896	-0.21	
198.361	1.69	
198.826	1.5	
199.291	1.47	
199.755	1.51	
200.22	1.5	
200.685	1.51	
201.149	1.49	
201.614	1.52	
202.078	1.53	
202.543	1.53	
203.007	1.54	
203.471	1.56	
203.936	1.56	
204.4	1.56	
204.864	1.55	
205.328	1.56	
205.792	1.58	
206.256	1.6	
206.72	1.57	
207.184	1.59	
207.648	1.6	
208.112	1.6	
208.576	1.55	
209.039	1.59	
209.503	1.59	
209.967	1.57	
210.43	1.59	
210.894	1.58	
211.357	1.6	
211.821	1.58	
212.284	1.58	
212.747	1.59	
213.211	1.54	
213.674	1.57	
214.137	1.55	
214.6	1.57	
215.063	1.53	
215.526	1.52	
215.989	1.53	
216.452	1.5	
216.915	1.51	
217.378	1.5	
217.841	1.46	
218.304	1.42	
218.767	1.4	
219.229	1.35	
219.692	1.28	
220.154	1.23	
220.617	1.18	
221.079	1.12	
221.542	1.05	
222.004	0.97	
222.467	0.91	
222.929	0.82	
223.391	0.76	
223.853	0.71	
224.315	0.65	
224.777	0.58	
225.239	0.55	
225.701	0.5	
226.163	0.46	
226.625	0.43	
227.087	0.39	
227.549	0.35	
228.011	0.32	
228.472	0.3	
228.934	0.29	
229.396	0.26	
229.857	0.25	
230.319	0.22	
230.78	0.21	
231.242	0.2	
231.703	0.19	
232.164	0.17	
232.626	0.17	
233.087	0.15	
233.548	0.15	
234.009	0.16	
234.47	0.15	
234.931	0.14	
235.392	0.13	
235.853	0.13	
236.314	0.12	
236.775	0.12	
237.235	0.11	
237.696	0.11	
238.157	0.1	
238.618	0.11	
239.078	0.1	
239.539	0.09	
239.999	0.09	
240.46	0.09	
240.92	0.08	
241.38	0.08	
241.841	0.08	
242.301	0.07	
242.761	0.07	
243.221	0.06	
243.681	0.06	
244.141	0.06	
244.601	0.05	
245.061	0.05	
245.521	0.05	
245.981	0.04	
246.441	0.04	
246.901	0.04	
247.36	0.03	
247.82	0.03	
248.28	0.03	
248.739	0.02	
249.199	0.02	
249.658	0.02	
250.117	0.01	
250.577	0.01	
251.036	0.01	
251.495	0	
251.955	0	
252.414	-0	
252.873	-0	
253.332	-0	
253.791	-0	
254.25	-0	
254.709	-0	
255.168	-0	
255.627	-0	
256.085	-0	
256.544	-0	
257.003	-0	
257.461	-0	
257.92	-0	
258.379	-0	
258.837	-0	
259.295	-0	
259.754	-0	
260.212	-0	
260.67	-0	
261.129	-0	
261.587	-0	
262.045	-0	
262.503	-0	
262.961	-0	
263.419	-0	
263.877	-0	
264.335	-0	
264.793	-0	
265.251	-0	
265.708	-0	
266.166	-0	
266.624	-0	
267.081	-0	
267.539	-0	
267.996	-0	
268.454	-0	
268.911	-0	
269.369	-0	
269.826	-0	
270.283	-0	
270.74	-0	
271.198	-0	
271.655	-0	
272.112	-0	
272.569	-0	
273.026	-0	
273.483	-0	
273.94	-0	
274.396	-0	
274.853	-0	
275.31	-0	
275.767	-0	
276.223	-0	
276.68	-0	
277.136	-0	
277.593	-0	
278.049	-0	
278.506	-0	
278.962	-0	
279.418	-0	
279.874	-0	
280.331	-0	
280.787	-0	
281.243	-0	
281.699	-0	
282.155	-0	
282.611	-0	
283.067	-0	
283.522	-0	
283.978	-0	
284.434	-0	
284.89	-0	
285.345	-0	
285.801	-0	
286.256	-0	
286.712	-0	
287.167	-0	
287.623	-0	
288.078	-0	
288.533	-0	
288.989	-0	
289.444	-0	
289.899	-0	
290.354	-0	
290.809	-0	
291.264	-0	
291.719	-0	
292.174	-0	
292.629	-0	
293.084	-0	
293.538	-0	
293.993	-0	
294.448	-0	
294.902	-0	
295.357	-0	
295.811	-0	
296.266	-0	
296.72	-0	
297.174	-0	
297.629	-0	
298.083	-0	
298.537	-0	
298.991	-0	
299.446	-0	
299.9	-0	
300.354	-0	
300.808	-0	
301.261	-0	
301.715	-0	
302.169	-0	
302.623	-0	
303.077	-0	
303.53	-0	
303.984	-0	
304.437	-0	
304.891	-0	
305.344	-0	
305.798	-0	
306.251	-0	
306.704	-0	
307.158	-0	
307.611	-0	
308.064	-0	
308.517	-0	
308.97	-0	
309.423	-0	
309.876	-0	
310.329	-0	
310.782	-0	
311.235	-0	
311.688	-0	
312.14	-0	
312.593	-0	
313.046	-0	
313.498	-0	
313.951	-0	
314.403	-0	
314.856	-0	
315.308	-0	
315.76	-0	
316.213	-0	
316.665	-0	
317.117	-0	
317.569	-0	
318.021	-0	
318.473	-0	
318.925	-0	
319.377	-0	
319.829	-0	
320.281	-0	
320.733	-0	
321.184	-0	
321.636	-0	
322.088	-0	
322.539	-0	
322.991	-0	
323.442	-0	
323.894	-0	
324.345	-0	
324.796	-0	
325.248	-0	
325.699	-0	
326.15	-0	
326.601	-0	
327.052	-0	
327.503	-0	
327.954	-0	
328.405	-0	
328.856	-0	
329.307	-0	
329.758	-0	
330.208	-0	
330.659	-0	
331.11	-0	
331.56	-0	
332.011	-0	
332.461	-0	
332.912	-0	
333.362	-0	
333.813	-0	
334.263	-0	
334.713	-0	
335.163	-0	
335.613	-0	
336.063	-0	
336.513	-0	
336.963	-0	
337.413	-0	
337.863	-0	
338.313	-0	
338.763	-0	
339.213	-0	
339.662	-0	
340.112	-0	
340.562	-0	
341.011	-0	
341.461	-0	
341.91	-0	
342.359	-0	
342.809	-0	
343.258	-0	
343.707	-0	
344.156	-0	
344.606	-0	
345.055	-0	
345.504	-0	
345.953	-0	
346.402	-0	
346.85	-0	
347.299	-0	
347.748	-0	
348.197	-0	
348.645	-0	
349.094	-0	
349.543	-0	
349.991	-0	
350.44	-0	
350.888	-0	
351.336	-0	
351.785	-0	
352.233	-0	
352.681	-0	
353.13	-0	
353.578	-0	
354.026	-0	
354.474	-0	
354.922	-0	
355.37	-0	
355.818	-0	
356.265	-0	
356.713	0	
357.161	0	
357.609	0	
358.056	0	
358.504	-0	
358.951	0	
359.399	0	
359.846	0	
360.294	0	
360.741	0	
361.188	0.01	
361.635	0.01	
362.083	0.01	
362.53	0.01	
362.977	0.01	
363.424	0.01	
363.871	0.01	
364.318	0.01	
364.765	0.01	
365.211	0.01	
365.658	0.02	
366.105	0.01	
366.552	0.02	
366.998	0.02	
367.445	0.01	
367.891	0.02	
368.338	0.02	
368.784	0.01	
369.231	0.02	
369.677	0.02	
370.123	0.02	
370.569	0.02	
371.016	0.02	
371.462	0.02	
371.908	0.03	
372.354	0.03	
372.8	0.03	
373.246	0.03	
373.692	0.03	
374.137	0.04	
374.583	0.04	
375.029	0.04	
375.475	0.04	
375.92	0.04	
376.366	0.04	
376.811	0.04	
377.257	0.04	
377.702	0.04	
378.147	0.04	
378.593	0.04	
379.038	0.04	
379.483	0.04	
379.928	0.03	
380.374	0.03	
380.819	0.03	
381.264	0.03	
381.709	0.03	
382.153	0.04	
382.598	0.04	
383.043	0.05	
383.488	0.05	
383.933	0.05	
384.377	0.06	
384.822	0.06	
385.266	0.06	
385.711	0.07	
386.155	0.07	
386.6	0.07	
387.044	0.07	
387.488	0.08	
387.933	0.08	
388.377	0.09	
388.821	0.08	
389.265	0.08	
389.709	0.08	
390.153	0.08	
390.597	0.09	
391.041	0.1	
391.485	0.1	
391.929	0.11	
392.372	0.11	
392.816	0.1	
393.26	0.1	
393.703	0.09	
394.147	0.09	
394.59	0.08	
395.034	0.09	
395.477	0.11	
395.921	0.12	
396.364	0.12	
396.807	0.13	
397.25	0.14	
397.693	0.14	
398.137	0.14	
398.58	0.14	
399.023	0.13	
399.466	0.13	
399.908	0.12	
400.351	0.11	
400.794	0.12	
401.237	0.13	
401.679	0.14	
402.122	0.15	
402.565	0.16	
403.007	0.17	
403.45	0.17	
403.892	0.18	
404.334	0.17	
404.777	0.17	
405.219	0.18	
405.661	0.18	
406.103	0.18	
406.546	0.18	
406.988	0.18	
407.43	0.18	
407.872	0.19	
408.314	0.19	
408.755	0.21	
409.197	0.2	
409.639	0.2	
410.081	0.2	
410.522	0.21	
410.964	0.21	
411.406	0.21	
411.847	0.22	
412.289	0.22	
412.73	0.23	
413.171	0.22	
413.613	0.24	
414.054	0.24	
414.495	0.23	
414.936	0.24	
415.377	0.24	
415.818	0.24	
416.259	0.25	
416.7	0.26	
417.141	0.26	
417.582	0.26	
418.023	0.27	
418.464	0.28	
418.904	0.28	
419.345	0.28	
419.786	0.29	
420.226	0.29	
420.667	0.29	
421.107	0.3	
421.547	0.3	
421.988	0.3	
422.428	0.3	
422.868	0.3	
423.308	0.3	
423.749	0.31	
424.189	0.31	
424.629	0.32	
425.069	0.33	
425.509	0.34	
425.949	0.36	
426.388	0.37	
426.828	0.36	
427.268	0.38	
427.708	0.39	
428.147	0.39	
428.587	0.41	
429.026	0.42	
429.466	0.42	
429.905	0.43	
430.344	0.43	
430.784	0.43	
431.223	0.43	
431.662	0.43	
432.101	0.43	
432.541	0.44	
432.98	0.45	
433.419	0.47	
433.858	0.48	
434.296	0.5	
434.735	0.51	
435.174	0.52	
435.613	0.54	
436.052	0.54	
436.49	0.56	
436.929	0.57	
437.367	0.57	
437.806	0.58	
438.244	0.58	
438.683	0.59	
439.121	0.61	
439.559	0.61	
439.998	0.63	
440.436	0.65	
440.874	0.65	
441.312	0.67	
441.75	0.68	
442.188	0.69	
442.626	0.7	
443.064	0.72	
443.502	0.72	
443.939	0.74	
444.377	0.74	
444.815	0.77	
445.253	0.76	
445.69	0.77	
446.128	0.79	
446.565	0.8	
447.002	0.81	
447.44	0.83	
447.877	0.84	
448.314	0.85	
448.752	0.86	
449.189	0.89	
449.626	0.89	
450.063	0.9	
450.5	0.91	
450.937	0.93	
451.374	0.95	
451.811	0.97	
452.248	0.97	
452.684	0.99	
453.121	1	
453.558	1.02	
453.994	1.03	
454.431	1.05	
454.867	1.05	
455.304	1.06	
455.74	1.07	
456.176	1.09	
456.613	1.12	
457.049	1.13	
457.485	1.13	
457.921	1.14	
458.357	1.16	
458.793	1.17	
459.229	1.17	
459.665	1.21	
460.101	1.19	
460.537	1.21	
460.973	1.23	
461.408	1.22	
461.844	1.22	
462.28	1.23	
462.715	1.24	
463.151	1.25	
463.586	1.26	
464.022	1.28	
464.457	1.28	
464.892	1.31	
465.328	1.32	
465.763	1.31	
466.198	1.32	
466.633	1.33	
467.068	1.33	
467.503	1.33	
467.938	1.32	
468.373	1.33	
468.808	1.34	
469.243	1.36	
469.677	1.35	
470.112	1.34	
470.547	1.37	
470.981	1.38	
471.416	1.4	
471.85	1.4	
472.285	1.41	
472.719	1.41	
473.153	1.4	
473.588	1.43	
474.022	1.41	
474.456	1.45	
474.89	1.43	
475.324	1.44	
475.758	1.44	
476.192	1.47	
476.626	1.46	
477.06	1.45	
477.494	1.49	
477.928	1.47	
478.361	1.46	
478.795	1.48	
479.229	1.47	
479.662	1.49	
480.096	1.5	
480.529	1.5	
480.962	1.48	
481.396	1.49	
481.829	1.5	
482.262	1.49	
482.695	1.47	
483.129	1.48	
483.562	1.51	
483.995	1.49	
484.428	1.51	
484.861	1.47	
485.294	1.49	
485.726	1.49	
486.159	1.47	
486.592	1.49	
487.024	1.47	
487.457	1.44	
487.89	1.46	
488.322	1.48	
488.755	1.48	
489.187	1.47	
489.619	1.49	
490.052	1.53	
490.484	1.52	
490.916	1.55	
491.348	1.56	
491.78	1.57	
492.212	1.58	
492.644	1.57	
493.076	1.58	
493.508	1.61	
493.94	1.58	
494.372	1.58	
494.804	1.6	
495.235	1.61	
495.667	1.63	
496.098	1.62	
496.53	1.61	
496.961	1.59	
497.393	1.64	
497.824	1.61	
498.256	1.62	
498.687	1.6	
499.118	1.65	
499.549	1.64	
499.98	1.65	
500.411	1.63	
500.842	1.68	
501.273	1.66	
501.704	1.67	
502.135	1.68	
502.566	1.67	
502.997	1.67	
503.427	1.69	
503.858	1.69	
504.289	1.69	
504.719	1.71	
505.15	1.7	
505.58	1.66	
506.01	1.69	
506.441	1.7	
506.871	1.7	
507.301	1.7	
507.731	1.73	
508.161	1.74	
508.592	1.72	
509.022	1.73	
509.451	1.71	
509.881	1.74	
510.311	1.7	
510.741	1.73	
511.171	1.72	
511.6	1.73	
512.03	1.74	
512.46	1.68	
512.889	1.74	
513.319	1.71	
513.748	1.7	
514.178	1.73	
514.607	1.75	
515.036	1.7	
515.465	1.73	
515.895	1.73	
516.324	1.71	
516.753	1.73	
517.182	1.75	
517.611	1.69	
518.04	1.71	
518.469	1.71	
518.897	1.72	
519.326	1.72	
519.755	1.74	
520.183	1.7	
520.612	1.77	
521.041	1.68	
521.469	1.71	
521.898	1.69	
522.326	1.74	
522.754	1.72	
523.183	1.72	
523.611	1.7	
524.039	1.7	
524.467	1.69	
524.895	1.67	
525.323	1.69	
525.751	1.66	
526.179	1.64	
526.607	1.63	
527.035	1.62	
527.463	1.65	
527.89	1.63	
528.318	1.62	
528.745	1.61	
529.173	1.61	
529.601	1.6	
530.028	1.6	
530.455	1.59	
530.883	1.56	
531.31	1.57	
531.737	1.53	
532.164	1.54	
532.592	1.53	
533.019	1.53	
533.446	1.5	
533.873	1.5	
534.3	1.48	
534.726	1.47	
535.153	1.48	
535.58	1.45	
536.007	1.43	
536.433	1.41	
536.86	1.39	
537.287	1.37	
537.713	1.36	
538.139	1.33	
538.566	1.34	
538.992	1.33	
539.418	1.3	
539.845	1.28	
540.271	1.25	
540.697	1.25	
541.123	1.24	
541.549	1.21	
541.975	1.2	
542.401	1.18	
542.827	1.17	
543.253	1.15	
543.678	1.15	
544.104	1.13	
544.53	1.09	
544.955	1.08	
545.381	1.08	
545.806	1.05	
546.232	1.02	
546.657	1.01	
547.083	0.99	
547.508	0.97	
547.933	0.97	
548.358	0.93	
548.783	0.91	
549.209	0.89	
549.634	0.88	
550.059	0.87	
550.483	0.87	
550.908	0.84	
551.333	0.83	
551.758	0.83	
552.183	0.81	
552.607	0.78	
553.032	0.76	
553.456	0.75	
553.881	0.72	
554.305	0.7	
554.73	0.7	
555.154	0.67	
555.578	0.65	
556.003	0.64	
556.427	0.62	
556.851	0.61	
557.275	0.59	
557.699	0.59	
558.123	0.58	
558.547	0.57	
558.971	0.56	
559.395	0.55	
559.818	0.54	
560.242	0.54	
560.666	0.53	
561.089	0.5	
561.513	0.48	
561.936	0.46	
562.36	0.44	
562.783	0.42	
563.206	0.4	
563.63	0.37	
564.053	0.37	
564.476	0.36	
564.899	0.35	
565.322	0.35	
565.745	0.34	
566.168	0.33	
566.591	0.32	
567.014	0.32	
567.437	0.31	
567.86	0.3	
568.282	0.28	
568.705	0.27	
569.128	0.25	
569.55	0.23	
569.973	0.2	
570.395	0.18	
570.817	0.16	
571.24	0.14	
571.662	0.12	
572.084	0.1	
572.506	0.08	
572.928	0.07	
573.35	0.06	
573.772	0.05	
574.194	0.05	
574.616	0.04	
575.038	0.04	
575.46	0.03	
575.882	0.02	
576.303	0.02	
576.725	0.02	
577.147	0.02	
577.568	0.02	
577.99	0.01	
578.411	0.01	
578.832	-0	
579.254	-0	
579.675	-0	
580.096	-0	
580.517	-0	
580.938	-0	
581.36	-0	
581.781	-0	
582.201	-0	
582.622	-0	
583.043	-0	
583.464	-0	
583.885	-0	
584.305	-0	
584.726	-0	
585.147	-0	
585.567	-0	
585.988	-0	
586.408	-0	
586.828	-0	
587.249	-0	
587.669	-0	
588.089	-0	
588.509	-0	
588.929	-0	
589.349	-0	
589.769	-0	
590.189	-0	
590.609	-0	
591.029	-0	
591.449	-0	
591.868	-0	
592.288	-0	
592.708	-0	
593.127	-0	
593.547	-0	
593.966	-0	
594.386	-0	
594.805	-0	
595.224	-0	
595.643	-0	
596.063	-0	
596.482	-0	
596.901	-0	
597.32	-0	
597.739	-0	
598.158	-0	
598.577	-0	
598.995	-0	
599.414	-0	
599.833	-0	
600.252	-0	
600.67	-0	
601.089	-0	
601.507	-0	
601.926	-0	
602.344	-0	
602.762	-0	
603.181	-0	
603.599	-0	
604.017	-0	
604.435	-0	
604.853	-0	
605.271	-0	
605.689	-0	
606.107	-0	
606.525	-0	
606.943	-0	
607.36	-0	
607.778	-0	
608.196	-0	
608.613	-0	
609.031	-0	
609.448	-0	
609.866	-0	
610.283	-0	
610.7	-0	
611.118	-0	
611.535	-0	
611.952	-0	
612.369	-0	
612.786	-0	
613.203	-0	
613.62	-0	
614.037	-0	
614.454	-0	
614.87	-0	
615.287	-0	
615.704	-0	
616.12	-0	
616.537	-0	
616.953	-0	
617.37	-0	
617.786	-0	
618.203	-0	
618.619	-0	
619.035	-0	
619.451	-0	
619.868	-0	
620.284	-0	
620.7	-0	
621.116	-0	
621.531	-0	
621.947	-0	
622.363	-0	
622.779	-0	
623.195	-0	
623.61	-0	
624.026	-0	
624.441	-0	
624.857	-0	
625.272	-0	
625.688	-0	
626.103	-0	
626.518	-0	
626.933	-0	
627.349	-0	
627.764	-0	
628.179	-0	
628.594	-0	
629.009	-0	
629.424	-0	
629.838	-0	
630.253	-0	
630.668	-0	
631.083	-0	
631.497	-0	
631.912	-0	
632.326	-0	
632.741	-0	
633.155	-0	
633.57	-0	
633.984	0	
634.398	0	
634.812	0	
635.226	0	
635.64	0	
636.054	0	
636.468	0	
636.882	0	
637.296	0	
637.71	0	
638.124	-0	
638.537	-0	
638.951	-0	
639.365	-0	
639.778	-0	
640.192	0	
640.605	0	
641.019	0	
641.432	0	
641.845	0	
642.258	-0	
642.672	0	
643.085	0	
643.498	0	
643.911	0	
644.324	0	
644.737	0	
645.149	0	
645.562	0	
645.975	0	
646.388	0	
646.8	0	
647.213	0	
647.625	0	
648.038	0	
648.45	-0	
648.862	-0	
649.275	-0	
649.687	-0	
650.099	-0	
650.511	-0	
650.923	-0	
651.335	-0	
651.747	-0	
652.159	-0	
652.571	-0	
652.983	-0	
653.395	-0	
653.806	-0	
654.218	-0	
654.63	-0	
655.041	-0	
655.453	-0	
655.864	-0	
656.275	-0	
656.687	-0	
657.098	-0	
657.509	-0	
657.92	-0	
658.332	-0	
658.743	-0	
659.154	-0	
659.565	-0	
659.975	-0	
660.386	-0	
660.797	-0	
661.208	-0	
661.618	-0	
662.029	-0	
662.44	-0	
662.85	-0	
663.261	-0	
663.671	-0	
664.081	-0	
664.492	-0	
664.902	-0	
665.312	-0	
665.722	-0	
666.132	-0	
666.542	-0	
666.952	-0	
667.362	-0	
667.772	-0	
668.182	-0	
668.591	-0	
669.001	-0	
669.411	-0	
669.82	-0	
670.23	-0	
670.639	-0	
671.049	-0	
671.458	-0	
671.867	-0	
672.277	-0	
672.686	-0	
673.095	-0	
673.504	-0	
673.913	-0	
674.322	-0	
674.731	-0	
675.14	-0	
675.549	-0	
675.957	-0	
676.366	-0	
676.775	-0	
677.183	-0	
677.592	-0	
678	-0	
678.409	-0	
678.817	-0	
679.226	-0	
679.634	-0	
680.042	-0	
680.45	-0	
680.858	-0	
681.266	-0	
681.674	-0	
682.082	-0	
682.49	-0	
682.898	-0	
683.306	-0	
683.714	-0	
684.121	-0	
684.529	-0	
684.936	-0	
685.344	-0	
685.751	-0	
686.159	-0	
686.566	-0	
686.973	-0	
687.381	-0	
687.788	-0	
688.195	-0	
688.602	-0	
689.009	-0	
689.416	-0	
689.823	-0	
690.23	-0	
690.636	-0	
691.043	-0	
691.45	-0	
691.857	-0	
692.263	-0	
692.67	-0	
693.076	-0	
693.483	-0	
693.889	-0	
694.295	-0	
694.701	-0	
695.108	-0	
695.514	-0	
695.92	-0	
696.326	-0	
696.732	-0	
697.138	-0	
697.544	-0	
697.949	-0	
698.355	-0	
698.761	-0	
699.167	-0	
699.572	-0	
699.978	-0	
700.383	-0	
700.789	-0	
701.194	-0	
701.599	-0	
702.004	-0	
702.41	-0	
702.815	-0	
703.22	-0	
703.625	-0	
704.03	-0	
704.435	-0	
704.84	-0	
705.245	-0	
705.649	-0	
706.054	-0	
706.459	-0	
706.863	-0	
707.268	-0	
707.672	-0	
708.077	-0	
708.481	-0	
708.885	-0	
709.29	-0	
709.694	-0	
710.098	-0	
710.502	-0	
710.906	-0	
711.31	-0	
711.714	-0	
712.118	-0	
712.522	-0	
712.926	-0	
713.329	-0	
713.733	-0	
714.137	-0	
714.54	-0	
714.944	-0	
715.347	-0	
715.75	-0	
716.154	-0	
716.557	-0	
716.96	-0	
717.363	-0	
717.767	-0	
718.17	-0	
718.573	-0	
718.976	-0	
719.378	-0	
719.781	-0	
720.184	-0	
720.587	-0	
720.989	-0	
721.392	-0	
721.795	-0	
722.197	-0	
722.6	-0	
723.002	-0	
723.404	-0	
723.807	-0	
724.209	-0	
724.611	-0	
725.013	-0	
725.415	-0	
725.817	-0	
726.219	-0	
726.621	-0	
727.023	-0	
727.425	-0	
727.826	-0	
728.228	-0	
728.63	-0	
729.031	-0	
729.433	-0	
729.834	-0	
730.236	-0	
730.637	-0	
731.038	-0	
731.44	-0	
731.841	-0	
732.242	-0	
732.643	-0	
733.044	-0	
733.445	-0	
733.846	-0	
734.247	-0	
734.647	-0	
735.048	-0	
735.449	-0	
735.849	-0	
736.25	-0	
736.65	-0	
737.051	-0	
737.451	-0	
737.852	-0	
738.252	-0	
738.652	-0	
739.052	-0	
739.453	-0	
739.853	-0	
740.253	-0	
740.653	-0	
741.052	-0	
741.452	-0	
741.852	-0	
742.252	-0	
742.651	-0	
743.051	-0	
743.451	-0	
743.85	-0	
744.25	-0	
744.649	-0	
745.048	-0	
745.448	-0	
745.847	-0	
746.246	-0	
746.645	-0	
747.044	-0	
747.443	-0	
747.842	-0	
748.241	-0	
748.64	-0	
749.039	-0	
749.438	-0	
749.836	-0	
750.235	-0	
750.633	-0	
751.032	-0	
751.43	-0	
751.829	-0	
752.227	-0	
752.625	-0	
753.024	-0	
753.422	-0	
753.82	-0	
754.218	-0	
754.616	-0	
755.014	-0	
755.412	-0	
755.81	-0	
756.208	-0	
756.605	-0	
757.003	-0	
757.401	-0	
757.798	-0	
758.196	-0	
758.593	-0	
758.99	-0	
759.388	-0	
759.785	-0	
760.182	-0	
760.58	-0	
760.977	-0	
761.374	-0	
761.771	-0	
762.168	-0	
762.565	-0	
762.961	-0	
763.358	-0	
763.755	-0	
764.152	-0	
764.548	-0	
764.945	-0	
765.341	-0	
765.738	-0	
766.134	-0	
766.53	-0	
766.927	-0	
767.323	-0	
767.719	-0	
768.115	-0	
768.511	-0	
768.907	-0	
769.303	-0	
769.699	-0	
770.095	-0	
770.491	-0	
770.886	-0	
771.282	-0	
771.678	-0	
772.073	-0	
772.469	-0	
772.864	-0	
773.26	-0	
773.655	0	
774.05	0	
774.445	0	
774.841	0	
775.236	0	
775.631	0.01	
776.026	0.01	
776.421	0.01	
776.816	0.01	
777.21	0.01	
777.605	0.01	
778	0.01	
778.395	0.01	
778.789	0.01	
779.184	0.01	
779.578	0.01	
779.973	0.01	
780.367	0.01	
780.761	0.01	
781.156	0.01	
781.55	0.01	
781.944	0.01	
782.338	0.01	
782.732	0.01	
783.126	0.01	
783.52	0.01	
783.914	0.01	
784.308	0.01	
784.701	0.02	
785.095	0.02	
785.489	0.01	
785.882	0.02	
786.276	0.02	
786.669	0.02	
787.063	0.02	
787.456	0.02	
787.85	0.02	
788.243	0.02	
788.636	0.02	
789.029	0.02	
789.422	0.02	
789.815	0.02	
790.208	0.02	
790.601	0.02	
790.994	0.02	
791.387	0.02	
791.78	0.03	
792.172	0.03	
792.565	0.02	
792.957	0.03	
793.35	0.03	
793.742	0.03	
794.135	0.03	
794.527	0.03	
794.919	0.02	
795.312	0.02	
795.704	0.02	
796.096	0.02	
796.488	0.02	
796.88	0.02	
797.272	0.03	
797.664	0.03	
798.056	0.04	
798.448	0.04	
798.839	0.04	
799.231	0.04	
799.623	0.04	
800.014	0.05	
800.406	0.04	
800.797	0.05	
801.189	0.05	
801.58	0.05	
801.971	0.05	
802.362	0.05	
802.754	0.05	
803.145	0.05	
803.536	0.05	
803.927	0.05	
804.318	0.06	
804.709	0.06	
805.099	0.05	
805.49	0.06	
805.881	0.06	
806.272	0.06	
806.662	0.06	
807.053	0.06	
807.443	0.05	
807.834	0.06	
808.224	0.05	
808.614	0.05	
809.005	0.06	
809.395	0.06	
809.785	0.06	
810.175	0.06	
810.565	0.06	
810.955	0.06	
811.345	0.07	
811.735	0.07	
812.125	0.06	
812.515	0.06	
812.904	0.07	
813.294	0.06	
813.684	0.06	
814.073	0.07	
814.463	0.07	
814.852	0.06	
815.241	0.07	
815.631	0.06	
816.02	0.07	
816.409	0.07	
816.798	0.07	
817.187	0.08	
817.576	0.07	
817.965	0.07	
818.354	0.07	
818.743	0.07	
819.132	0.08	
819.521	0.08	
819.909	0.08	
820.298	0.08	
820.686	0.08	
821.075	0.08	
821.463	0.08	
821.852	0.08	
822.24	0.08	
822.628	0.08	
823.017	0.08	
823.405	0.08	
823.793	0.08	
824.181	0.09	
824.569	0.08	
824.957	0.08	
825.345	0.08	
825.733	0.09	
826.12	0.09	
826.508	0.09	
826.896	0.09	
827.283	0.09	
827.671	0.09	
828.059	0.08	
828.446	0.09	
828.833	0.08	
829.221	0.09	
829.608	0.09	
829.995	0.09	
830.382	0.1	
830.769	0.1	
831.156	0.1	
831.543	0.1	
831.93	0.1	
832.317	0.1	
832.704	0.1	
833.091	0.09	
833.477	0.1	
833.864	0.1	
834.251	0.1	
834.637	0.1	
835.024	0.1	
835.41	0.1	
835.796	0.11	
836.183	0.1	
836.569	0.11	
836.955	0.1	
837.341	0.11	
837.727	0.1	
838.113	0.1	
838.499	0.1	
838.885	0.1	
839.271	0.1	
839.657	0.11	
840.043	0.11	
840.428	0.11	
840.814	0.11	
841.199	0.1	
841.585	0.1	
841.97	0.1	
842.356	0.1	
842.741	0.11	
843.126	0.1	
843.512	0.11	
843.897	0.11	
844.282	0.11	
844.667	0.1	
845.052	0.1	
845.437	0.1	
845.822	0.11	
846.206	0.1	
846.591	0.11	
846.976	0.11	
847.361	0.1	
847.745	0.11	
848.13	0.11	
848.514	0.1	
848.899	0.1	
849.283	0.1	
849.667	0.1	
850.051	0.1	
850.436	0.1	
850.82	0.1	
851.204	0.1	
851.588	0.1	
851.972	0.1	
852.356	0.1	
852.74	0.1	
853.123	0.1	
853.507	0.1	
853.891	0.1	
854.274	0.09	
854.658	0.1	
855.041	0.11	
855.425	0.1	
855.808	0.1	
856.192	0.1	
856.575	0.1	
856.958	0.09	
857.341	0.1	
857.724	0.09	
858.107	0.1	
858.49	0.1	
858.873	0.09	
859.256	0.1	
859.639	0.11	
860.022	0.09	
860.404	0.1	
860.787	0.09	
861.17	0.1	
861.552	0.09	
861.935	0.09	
862.317	0.09	
862.699	0.09	
863.082	0.09	
863.464	0.09	
863.846	0.09	
864.228	0.09	
864.61	0.09	
864.992	0.08	
865.374	0.09	
865.756	0.09	
866.138	0.09	
866.52	0.09	
866.902	0.09	
867.283	0.09	
867.665	0.08	
868.046	0.08	
868.428	0.09	
868.809	0.09	
869.191	0.1	
869.572	0.09	
869.953	0.09	
870.335	0.08	
870.716	0.08	
871.097	0.09	
871.478	0.08	
871.859	0.08	
872.24	0.08	
872.621	0.09	
873.001	0.09	
873.382	0.09	
873.763	0.08	
874.143	0.09	
874.524	0.08	
874.905	0.09	
875.285	0.08	
875.665	0.09	
876.046	0.08	
876.426	0.09	
876.806	0.08	
877.186	0.1	
877.567	0.07	
877.947	0.09	
878.327	0.08	
878.707	0.08	
879.086	0.09	
879.466	0.07	
879.846	0.09	
880.226	0.09	
880.605	0.08	
880.985	0.08	
881.365	0.09	
881.744	0.08	
882.124	0.09	
882.503	0.09	
882.882	0.1	
883.261	0.09	
883.641	0.09	
884.02	0.09	
884.399	0.07	
884.778	0.09	
885.157	0.09	
885.536	0.09	
885.915	0.09	
886.293	0.09	
886.672	0.08	
887.051	0.09	
887.429	0.08	
887.808	0.09	
888.186	0.1	
888.565	0.08	
888.943	0.1	
889.322	0.09	
889.7	0.09	
890.078	0.09	
890.456	0.08	
890.834	0.1	
891.212	0.09	
891.59	0.07	
891.968	0.09	
892.346	0.09	
892.724	0.09	
893.102	0.1	
893.479	0.08	
893.857	0.09	
894.235	0.08	
894.612	0.09	
894.99	0.08	
895.367	0.09	
895.744	0.1	
896.122	0.1	
896.499	0.11	
896.876	0.11	
897.253	0.08	
897.63	0.1	
898.007	0.1	
898.384	0.1	
898.761	0.09	
899.138	0.09	
899.515	0.1	
899.891	0.09	
900.268	0.09	
900.645	0.11	
901.021	0.08	
901.398	0.11	
901.774	0.11	
902.15	0.09	
902.527	0.11	
902.903	0.11	
903.279	0.09	
903.655	0.1	
904.031	0.11	
904.407	0.1	
904.783	0.11	
905.159	0.12	
905.535	0.12	
905.911	0.11	
906.287	0.12	
906.662	0.14	
907.038	0.13	
907.413	0.12	
907.789	0.12	
908.164	0.13	
908.54	0.13	
908.915	0.13	
909.29	0.13	
909.666	0.14	
910.041	0.13	
910.416	0.12	
910.791	0.14	
911.166	0.13	
911.541	0.13	
911.916	0.13	
912.29	0.11	
912.665	0.15	
913.04	0.12	
913.414	0.13	
913.789	0.12	
914.163	0.15	
914.538	0.16	
914.912	0.16	
915.287	0.11	
915.661	0.13	
916.035	0.12	
916.409	0.17	
916.783	0.11	
917.157	0.14	
917.531	0.14	
917.905	0.14	
918.279	0.12	
918.653	0.12	
919.027	0.12	
919.4	0.15	
919.774	0.12	
920.148	0.11	
920.521	0.17	
920.895	0.13	
921.268	0.14	
921.641	0.15	
922.015	0.18	
922.388	0.14	
922.761	0.1	
923.134	0.16	
923.507	0.11	
923.88	0.14	
924.253	0.16	
924.626	0.16	
924.999	0.18	
925.372	0.17	
925.744	0.17	
926.117	0.16	
926.489	0.15	
926.862	0.14	
927.234	0.16	
927.607	0.14	
927.979	0.12	
928.352	0.14	
928.724	0.16	
929.096	0.16	
929.468	0.15	
929.84	0.12	
930.212	0.14	
930.584	0.15	
930.956	0.13	
931.328	0.12	
931.7	0.15	
932.071	0.15	
932.443	0.15	
932.814	0.14	
933.186	0.14	
933.557	0.14	
933.929	0.16	
934.3	0.2	
934.672	0.13	
935.043	0.13	
935.414	0.12	
935.785	0.19	
936.156	0.2	
936.527	0.19	
936.898	0.15	
937.269	0.17	
937.64	0.21	
938.011	0.16	
938.381	0.2	
938.752	0.18	
939.123	0.16	
939.493	0.16	
939.864	0.17	
940.234	0.22	
940.604	0.17	
940.975	0.21	
941.345	0.2	
941.715	0.24	
942.085	0.18	
942.455	0.15	
942.825	0.24	
943.195	0.2	
943.565	0.18	
943.935	0.16	
944.305	0.17	
944.675	0.21	
945.044	0.18	
945.414	0.2	
945.783	0.22	
946.153	0.2	
946.522	0.17	
946.892	0.19	
947.261	0.24	
947.63	0.19	
947.999	0.2	
948.369	0.25	
948.738	0.24	
949.107	0.17	
949.476	0.21	
949.844	0.24	
950.213	0.18	
950.582	0.18	
950.951	0.2	
951.319	0.2	
951.688	0.26	
952.057	0.19	
952.425	0.19	
952.794	0.23	
953.162	0.28	
953.53	0.16	
953.898	0.25	
954.267	0.21	
954.635	0.24	
955.003	0.21	
955.371	0.27	
955.739	0.15	
956.107	0.21	
956.475	0.25	
956.842	0.27	
957.21	0.23	
957.578	0.18	
957.945	0.31	
958.313	0.2	
958.68	0.2	
959.048	0.26	
959.415	0.2	
959.783	0.31	
960.15	0.29	
960.517	0.22	
960.884	0.22	
961.251	0.25	
961.618	0.22	
961.985	0.32	
962.352	0.23	
962.719	0.33	
963.086	0.25	
963.452	0.24	
963.819	0.33	
964.186	0.18	
964.552	0.17	
964.919	0.19	
965.285	0.36	
965.652	0.28	
966.018	0.31	
966.384	0.26	
966.75	0.17	
967.116	0.34	
967.482	0.25	
967.848	0.35	
968.214	0.35	
968.58	0.23	
968.946	0.3	
969.312	0.13	
969.678	0.25	
970.043	0.16	
970.409	0.22	
970.774	0.21	
971.14	0.2	
971.505	0.38	
971.871	0.28	
972.236	0.26	
972.601	0.4	
972.967	0.27	
973.332	0.26	
973.697	0.17	
974.062	0.26	
974.427	0.26	
974.792	0.32	
975.156	0.21	
975.521	0.22	
975.886	0.19	
976.251	0.2	
976.615	0.29	
976.98	0.23	
977.344	0.25	
977.709	0.24	
978.073	0.24	
978.437	0.34	
978.802	0.34	
979.166	0.32	
979.53	0.24	
979.894	0.09	
980.258	0.13	
980.622	0.23	
980.986	0.2	
981.35	0.19	
981.713	0.22	
982.077	0.26	
982.441	0.16	
982.804	0.28	
983.168	0.2	
983.531	0.25	
983.895	0.17	
984.258	0.14	
984.621	0.34	
984.985	0.19	
985.348	0.2	
985.711	0.18	
986.074	0.24	
986.437	0.27	
986.8	0.3	
987.163	0.2	
987.526	0.12	
987.888	0.23	
988.251	0.32	
988.614	0.18	
988.976	0.35	
989.339	0.14	
989.701	0.15	
990.064	0.11	
990.426	0.21	
990.788	0.16	
991.151	0.13	
991.513	0.28	
991.875	0.16	
992.237	0.38	
992.599	0.36	
992.961	0.35	
993.323	0.14	
993.685	0.29	
994.046	0.22	
994.408	0.15	
994.77	0.24	
995.131	0.28	
995.493	0.25	
995.854	0.03	
996.216	0.18	
996.577	0.4	
996.938	0.32	
997.299	0.08	
997.661	0.15	
998.022	0.07	
998.383	0.24	
998.744	0.29	
999.105	0.36	
999.465	0.28	
999.826	0.12	
1000.187	0.15	
1000.548	0.15	
1000.908	0.14	
1001.269	0.07	
1001.629	0.08	
1001.99	0.16	
1002.35	0.22	
1002.711	0.22	
1003.071	0.21	
1003.431	0.31	
1003.791	0.1	
1004.151	0.07	
1004.511	0.1	
1004.871	0.45	
1005.231	0.13	
1005.591	0.15	
1005.951	0.23	
1006.311	0.09	
1006.67	0.18	
1007.03	0.09	
1007.389	0.15	
1007.749	0.2	
1008.108	0.24	
1008.468	0.12	
1008.827	0.34	
1009.186	0.24	
1009.545	0.12	
1009.905	0.29	
1010.264	0.19	
1010.623	0.09	
1010.982	0.29	
1011.341	0.32	
1011.699	0.02	
1012.058	0.21	
1012.417	0.03	
1012.776	0.09	
1013.134	0.09	
1013.493	0.26	
1013.851	0.28	
1014.21	0.12	
1014.568	0.24	
1014.926	0.15	
1015.284	0.22	
1015.643	0.02	
1016.001	0.24	
1016.359	0.46	
1016.717	0.38	
1017.075	-0.05	
1017.433	0.16	
1017.79	0.19	
1018.148	0.11	
1018.506	0.11	
1018.864	0.21	
1019.221	0.1	
1019.579	0.07	
1019.936	0.12	
1020.294	0.1	
1020.651	0.21	
1021.008	0.06	
1021.365	0.09	
1021.723	0.2	
1022.08	0.22	
1022.437	0.16	
1022.794	0.19	
1023.151	0.15	
1023.507	0.09	
1023.864	0.2	
1024.221	0.28	
1024.578	0.12	
1024.934	0.08	
1025.291	0.15	
1025.647	-0.02	
1026.004	0.01	
1026.36	0.2	
1026.717	-0.03	
1027.073	0.14	
1027.429	0.21	
1027.785	0.12	
1028.141	0.18	
1028.497	0.15	
1028.853	0.19	
1029.209	0.15	
1029.565	0.15	
1029.921	0.21	
1030.277	0.08	
1030.632	0.15	
1030.988	0.22	
1031.343	0.25	
1031.699	0.08	
1032.054	0.08	
1032.41	0.08	
