Absorbance:209		
187.658	-0.07	
188.124	-0.07	
188.589	-0.07	
189.055	-0	
189.521	-0.45	
189.987	-0	
190.452	-0.05	
190.918	-0	
191.384	-0	
191.849	-0.14	
192.314	-0.12	
192.78	-0.12	
193.245	-0.72	
193.711	-0	
194.176	-0.59	
194.641	-0	
195.106	-0.36	
195.571	-0.01	
196.037	1.16	
196.502	-0.16	
196.967	-1.18	
197.431	0.02	
197.896	-0.78	
198.361	1.93	
198.826	1.81	
199.291	1.79	
199.755	1.78	
200.22	1.79	
200.685	1.78	
201.149	1.77	
201.614	1.77	
202.078	1.8	
202.543	1.79	
203.007	1.78	
203.471	1.82	
203.936	1.77	
204.4	1.83	
204.864	1.78	
205.328	1.79	
205.792	1.82	
206.256	1.8	
206.72	1.83	
207.184	1.79	
207.648	1.83	
208.112	1.81	
208.576	1.76	
209.039	1.82	
209.503	1.8	
209.967	1.73	
210.43	1.74	
210.894	1.7	
211.357	1.73	
211.821	1.71	
212.284	1.71	
212.747	1.75	
213.211	1.68	
213.674	1.69	
214.137	1.64	
214.6	1.67	
215.063	1.6	
215.526	1.59	
215.989	1.57	
216.452	1.5	
216.915	1.47	
217.378	1.4	
217.841	1.33	
218.304	1.28	
218.767	1.21	
219.229	1.16	
219.692	1.09	
220.154	1.01	
220.617	0.95	
221.079	0.88	
221.542	0.82	
222.004	0.75	
222.467	0.7	
222.929	0.64	
223.391	0.58	
223.853	0.54	
224.315	0.5	
224.777	0.46	
225.239	0.43	
225.701	0.4	
226.163	0.37	
226.625	0.34	
227.087	0.31	
227.549	0.28	
228.011	0.26	
228.472	0.24	
228.934	0.23	
229.396	0.21	
229.857	0.21	
230.319	0.19	
230.78	0.17	
231.242	0.18	
231.703	0.16	
232.164	0.15	
232.626	0.14	
233.087	0.13	
233.548	0.13	
234.009	0.13	
234.47	0.13	
234.931	0.12	
235.392	0.11	
235.853	0.1	
236.314	0.1	
236.775	0.1	
237.235	0.09	
237.696	0.09	
238.157	0.08	
238.618	0.09	
239.078	0.08	
239.539	0.08	
239.999	0.08	
240.46	0.07	
240.92	0.06	
241.38	0.06	
241.841	0.06	
242.301	0.05	
242.761	0.05	
243.221	0.05	
243.681	0.04	
244.141	0.04	
244.601	0.04	
245.061	0.03	
245.521	0.03	
245.981	0.03	
246.441	0.02	
246.901	0.02	
247.36	0.02	
247.82	0.01	
248.28	0.01	
248.739	0.01	
249.199	0	
249.658	0.01	
250.117	-0	
250.577	-0	
251.036	-0	
251.495	-0	
251.955	-0	
252.414	-0	
252.873	-0	
253.332	-0	
253.791	-0	
254.25	-0	
254.709	-0	
255.168	-0	
255.627	-0	
256.085	-0	
256.544	-0	
257.003	-0	
257.461	-0	
257.92	-0	
258.379	-0	
258.837	-0	
259.295	-0	
259.754	-0	
260.212	-0	
260.67	-0	
261.129	-0	
261.587	-0	
262.045	-0	
262.503	-0	
262.961	-0	
263.419	-0	
263.877	-0	
264.335	-0	
264.793	-0	
265.251	-0	
265.708	-0	
266.166	-0	
266.624	-0	
267.081	-0	
267.539	-0	
267.996	-0	
268.454	-0	
268.911	-0	
269.369	-0	
269.826	-0	
270.283	-0	
270.74	-0	
271.198	-0	
271.655	-0	
272.112	-0	
272.569	-0	
273.026	-0	
273.483	-0	
273.94	-0	
274.396	-0	
274.853	-0	
275.31	-0	
275.767	-0	
276.223	-0	
276.68	-0	
277.136	-0	
277.593	-0	
278.049	-0	
278.506	-0	
278.962	-0	
279.418	-0	
279.874	-0	
280.331	-0	
280.787	-0	
281.243	-0	
281.699	-0	
282.155	-0	
282.611	-0	
283.067	-0	
283.522	-0	
283.978	-0	
284.434	-0	
284.89	-0	
285.345	-0	
285.801	-0	
286.256	-0	
286.712	-0	
287.167	-0	
287.623	-0	
288.078	-0	
288.533	-0	
288.989	-0	
289.444	-0	
289.899	-0	
290.354	-0	
290.809	-0	
291.264	-0	
291.719	-0	
292.174	-0	
292.629	-0	
293.084	-0	
293.538	-0	
293.993	-0	
294.448	-0	
294.902	-0	
295.357	-0	
295.811	-0	
296.266	-0	
296.72	-0	
297.174	-0	
297.629	-0	
298.083	-0	
298.537	-0	
298.991	-0	
299.446	-0	
299.9	-0	
300.354	-0	
300.808	-0	
301.261	-0	
301.715	-0	
302.169	-0	
302.623	-0	
303.077	-0	
303.53	-0	
303.984	-0	
304.437	-0	
304.891	-0	
305.344	-0	
305.798	-0	
306.251	-0	
306.704	-0	
307.158	-0	
307.611	-0	
308.064	-0	
308.517	-0	
308.97	-0	
309.423	-0	
309.876	-0	
310.329	-0	
310.782	-0	
311.235	-0	
311.688	-0	
312.14	-0	
312.593	-0	
313.046	-0	
313.498	-0	
313.951	-0	
314.403	-0	
314.856	-0	
315.308	-0	
315.76	-0	
316.213	-0	
316.665	-0	
317.117	-0	
317.569	-0	
318.021	-0	
318.473	-0	
318.925	-0	
319.377	-0	
319.829	-0	
320.281	-0	
320.733	-0	
321.184	-0	
321.636	-0	
322.088	-0	
322.539	-0	
322.991	-0	
323.442	-0	
323.894	-0	
324.345	-0	
324.796	-0	
325.248	-0	
325.699	-0	
326.15	-0	
326.601	-0	
327.052	-0	
327.503	-0	
327.954	-0	
328.405	-0	
328.856	-0	
329.307	-0	
329.758	-0	
330.208	-0	
330.659	-0	
331.11	-0	
331.56	-0	
332.011	-0	
332.461	-0	
332.912	-0	
333.362	-0	
333.813	-0	
334.263	-0	
334.713	-0	
335.163	-0	
335.613	-0	
336.063	-0	
336.513	-0	
336.963	-0	
337.413	-0	
337.863	-0	
338.313	0	
338.763	0.01	
339.213	0.01	
339.662	0.01	
340.112	0.01	
340.562	0.02	
341.011	0.02	
341.461	0.02	
341.91	0.02	
342.359	0.03	
342.809	0.03	
343.258	0.03	
343.707	0.04	
344.156	0.04	
344.606	0.05	
345.055	0.05	
345.504	0.05	
345.953	0.06	
346.402	0.07	
346.85	0.07	
347.299	0.07	
347.748	0.08	
348.197	0.08	
348.645	0.09	
349.094	0.1	
349.543	0.11	
349.991	0.12	
350.44	0.12	
350.888	0.14	
351.336	0.14	
351.785	0.15	
352.233	0.16	
352.681	0.17	
353.13	0.19	
353.578	0.19	
354.026	0.2	
354.474	0.21	
354.922	0.23	
355.37	0.24	
355.818	0.25	
356.265	0.26	
356.713	0.28	
357.161	0.29	
357.609	0.31	
358.056	0.32	
358.504	0.34	
358.951	0.35	
359.399	0.37	
359.846	0.39	
360.294	0.41	
360.741	0.43	
361.188	0.45	
361.635	0.47	
362.083	0.5	
362.53	0.52	
362.977	0.54	
363.424	0.56	
363.871	0.6	
364.318	0.61	
364.765	0.64	
365.211	0.66	
365.658	0.69	
366.105	0.71	
366.552	0.74	
366.998	0.77	
367.445	0.79	
367.891	0.83	
368.338	0.86	
368.784	0.88	
369.231	0.91	
369.677	0.95	
370.123	0.98	
370.569	1	
371.016	1.05	
371.462	1.07	
371.908	1.12	
372.354	1.15	
372.8	1.18	
373.246	1.2	
373.692	1.25	
374.137	1.29	
374.583	1.3	
375.029	1.37	
375.475	1.37	
375.92	1.4	
376.366	1.44	
376.811	1.48	
377.257	1.49	
377.702	1.52	
378.147	1.53	
378.593	1.58	
379.038	1.62	
379.483	1.62	
379.928	1.63	
380.374	1.67	
380.819	1.78	
381.264	1.7	
381.709	1.73	
382.153	1.79	
382.598	1.8	
383.043	1.78	
383.488	1.8	
383.933	1.8	
384.377	1.93	
384.822	1.91	
385.266	1.92	
385.711	1.85	
386.155	1.89	
386.6	1.95	
387.044	1.92	
387.488	1.9	
387.933	2.04	
388.377	1.97	
388.821	1.91	
389.265	1.9	
389.709	1.98	
390.153	1.98	
390.597	2.02	
391.041	1.94	
391.485	1.94	
391.929	1.96	
392.372	2.02	
392.816	1.97	
393.26	2.07	
393.703	1.94	
394.147	2.01	
394.59	2.03	
395.034	1.99	
395.477	2.02	
395.921	2	
396.364	2.03	
396.807	1.99	
397.25	2.06	
397.693	2.03	
398.137	1.95	
398.58	2	
399.023	2.07	
399.466	1.94	
399.908	2.03	
400.351	2.04	
400.794	2.04	
401.237	2.01	
401.679	2	
402.122	1.94	
402.565	2	
403.007	2	
403.45	2	
403.892	2	
404.334	2.01	
404.777	1.95	
405.219	1.95	
405.661	1.9	
406.103	1.87	
406.546	1.89	
406.988	1.92	
407.43	1.95	
407.872	1.84	
408.314	1.87	
408.755	1.85	
409.197	1.87	
409.639	1.84	
410.081	1.84	
410.522	1.82	
410.964	1.81	
411.406	1.79	
411.847	1.8	
412.289	1.76	
412.73	1.75	
413.171	1.73	
413.613	1.74	
414.054	1.67	
414.495	1.66	
414.936	1.66	
415.377	1.62	
415.818	1.62	
416.259	1.58	
416.7	1.58	
417.141	1.55	
417.582	1.52	
418.023	1.49	
418.464	1.47	
418.904	1.46	
419.345	1.41	
419.786	1.4	
420.226	1.33	
420.667	1.32	
421.107	1.32	
421.547	1.3	
421.988	1.24	
422.428	1.21	
422.868	1.17	
423.308	1.14	
423.749	1.12	
424.189	1.09	
424.629	1.06	
425.069	1.06	
425.509	1.02	
425.949	1	
426.388	0.98	
426.828	0.95	
427.268	0.93	
427.708	0.91	
428.147	0.89	
428.587	0.87	
429.026	0.83	
429.466	0.81	
429.905	0.79	
430.344	0.75	
430.784	0.72	
431.223	0.69	
431.662	0.67	
432.101	0.65	
432.541	0.63	
432.98	0.62	
433.419	0.61	
433.858	0.6	
434.296	0.59	
434.735	0.57	
435.174	0.55	
435.613	0.55	
436.052	0.53	
436.49	0.51	
436.929	0.5	
437.367	0.48	
437.806	0.47	
438.244	0.45	
438.683	0.45	
439.121	0.44	
439.559	0.42	
439.998	0.42	
440.436	0.41	
440.874	0.4	
441.312	0.39	
441.75	0.39	
442.188	0.38	
442.626	0.36	
443.064	0.36	
443.502	0.35	
443.939	0.35	
444.377	0.33	
444.815	0.33	
445.253	0.32	
445.69	0.31	
446.128	0.31	
446.565	0.3	
447.002	0.3	
447.44	0.3	
447.877	0.29	
448.314	0.29	
448.752	0.28	
449.189	0.28	
449.626	0.28	
450.063	0.27	
450.5	0.27	
450.937	0.26	
451.374	0.26	
451.811	0.27	
452.248	0.27	
452.684	0.26	
453.121	0.26	
453.558	0.26	
453.994	0.25	
454.431	0.25	
454.867	0.26	
455.304	0.25	
455.74	0.25	
456.176	0.25	
456.613	0.25	
457.049	0.25	
457.485	0.25	
457.921	0.24	
458.357	0.23	
458.793	0.23	
459.229	0.23	
459.665	0.23	
460.101	0.23	
460.537	0.22	
460.973	0.22	
461.408	0.22	
461.844	0.21	
462.28	0.21	
462.715	0.2	
463.151	0.2	
463.586	0.21	
464.022	0.21	
464.457	0.2	
464.892	0.2	
465.328	0.2	
465.763	0.19	
466.198	0.19	
466.633	0.17	
467.068	0.17	
467.503	0.16	
467.938	0.16	
468.373	0.15	
468.808	0.16	
469.243	0.16	
469.677	0.16	
470.112	0.16	
470.547	0.16	
470.981	0.16	
471.416	0.16	
471.85	0.16	
472.285	0.16	
472.719	0.15	
473.153	0.15	
473.588	0.15	
474.022	0.14	
474.456	0.14	
474.89	0.13	
475.324	0.12	
475.758	0.11	
476.192	0.11	
476.626	0.1	
477.06	0.09	
477.494	0.09	
477.928	0.09	
478.361	0.09	
478.795	0.08	
479.229	0.08	
479.662	0.08	
480.096	0.08	
480.529	0.07	
480.962	0.07	
481.396	0.07	
481.829	0.06	
482.262	0.05	
482.695	0.05	
483.129	0.04	
483.562	0.04	
483.995	0.03	
484.428	0.03	
484.861	0.03	
485.294	0.03	
485.726	0.02	
486.159	0.01	
486.592	0	
487.024	-0	
487.457	-0	
487.89	-0	
488.322	-0	
488.755	-0	
489.187	-0	
489.619	-0	
490.052	-0	
490.484	0	
490.916	0	
491.348	0.01	
491.78	0.01	
492.212	0.01	
492.644	0.01	
493.076	0.01	
493.508	0.01	
493.94	0.01	
494.372	0.01	
494.804	0.01	
495.235	0	
495.667	0	
496.098	-0	
496.53	-0	
496.961	-0	
497.393	-0	
497.824	-0	
498.256	-0	
498.687	-0	
499.118	-0	
499.549	-0	
499.98	-0	
500.411	-0	
500.842	-0	
501.273	-0	
501.704	-0	
502.135	-0	
502.566	-0	
502.997	-0	
503.427	-0	
503.858	-0	
504.289	-0	
504.719	-0	
505.15	-0	
505.58	-0	
506.01	-0	
506.441	-0	
506.871	-0	
507.301	-0	
507.731	-0	
508.161	-0	
508.592	-0	
509.022	-0	
509.451	-0	
509.881	-0	
510.311	-0	
510.741	-0	
511.171	-0	
511.6	-0	
512.03	-0	
512.46	-0	
512.889	-0	
513.319	-0	
513.748	-0	
514.178	-0	
514.607	-0	
515.036	-0	
515.465	-0	
515.895	-0	
516.324	0	
516.753	0	
517.182	0.01	
517.611	0	
518.04	0	
518.469	0	
518.897	0	
519.326	0	
519.755	0	
520.183	0.01	
520.612	0	
521.041	0	
521.469	0.01	
521.898	0.01	
522.326	0.01	
522.754	0.01	
523.183	0.01	
523.611	0.01	
524.039	0.01	
524.467	0.01	
524.895	0.01	
525.323	0.01	
525.751	0.01	
526.179	0.01	
526.607	0.02	
527.035	0.02	
527.463	0.02	
527.89	0.02	
528.318	0.02	
528.745	0.02	
529.173	0.02	
529.601	0.02	
530.028	0.02	
530.455	0.02	
530.883	0.01	
531.31	0.02	
531.737	0.02	
532.164	0.02	
532.592	0.02	
533.019	0.02	
533.446	0.02	
533.873	0.02	
534.3	0.02	
534.726	0.01	
535.153	0.01	
535.58	0.01	
536.007	0.01	
536.433	0.01	
536.86	0.01	
537.287	0.01	
537.713	0.01	
538.139	0.01	
538.566	0.01	
538.992	0.01	
539.418	0.01	
539.845	0.01	
540.271	0	
540.697	0	
541.123	0	
541.549	0	
541.975	0	
542.401	0	
542.827	0	
543.253	0	
543.678	0.01	
544.104	0.01	
544.53	0	
544.955	0.01	
545.381	0	
545.806	0	
546.232	0	
546.657	-0	
547.083	0	
547.508	-0	
547.933	-0	
548.358	-0	
548.783	-0	
549.209	-0	
549.634	-0	
550.059	-0	
550.483	-0	
550.908	-0	
551.333	0	
551.758	0	
552.183	0	
552.607	0	
553.032	0	
553.456	0	
553.881	-0	
554.305	-0	
554.73	-0	
555.154	-0	
555.578	-0	
556.003	-0	
556.427	-0	
556.851	-0	
557.275	-0	
557.699	-0	
558.123	-0	
558.547	0	
558.971	0	
559.395	0.01	
559.818	0.01	
560.242	0.01	
560.666	0.01	
561.089	0.01	
561.513	0.01	
561.936	0	
562.36	-0	
562.783	-0	
563.206	-0	
563.63	-0	
564.053	-0	
564.476	-0	
564.899	-0	
565.322	-0	
565.745	-0	
566.168	-0	
566.591	0	
567.014	0	
567.437	0.01	
567.86	0.01	
568.282	0.01	
568.705	0	
569.128	0	
569.55	-0	
569.973	-0	
570.395	-0	
570.817	-0	
571.24	-0	
571.662	-0	
572.084	-0	
572.506	-0	
572.928	-0	
573.35	-0	
573.772	-0	
574.194	-0	
574.616	-0	
575.038	-0	
575.46	-0	
575.882	-0	
576.303	-0	
576.725	-0	
577.147	-0	
577.568	-0	
577.99	-0	
578.411	-0	
578.832	-0	
579.254	-0	
579.675	-0	
580.096	-0	
580.517	-0	
580.938	-0	
581.36	-0	
581.781	-0	
582.201	-0	
582.622	-0	
583.043	-0	
583.464	-0	
583.885	-0	
584.305	-0	
584.726	-0	
585.147	-0	
585.567	-0	
585.988	-0	
586.408	-0	
586.828	-0	
587.249	-0	
587.669	-0	
588.089	-0	
588.509	-0	
588.929	-0	
589.349	-0	
589.769	-0	
590.189	-0	
590.609	-0	
591.029	0	
591.449	0.01	
591.868	0.01	
592.288	0.02	
592.708	0.02	
593.127	0.02	
593.547	0.02	
593.966	0.01	
594.386	0	
594.805	0	
595.224	0	
595.643	0.01	
596.063	0.01	
596.482	0.02	
596.901	0.03	
597.32	0.04	
597.739	0.04	
598.158	0.04	
598.577	0.04	
598.995	0.04	
599.414	0.03	
599.833	0.02	
600.252	0.01	
600.67	0.01	
601.089	0	
601.507	0	
601.926	0.01	
602.344	0.01	
602.762	0.02	
603.181	0.03	
603.599	0.04	
604.017	0.05	
604.435	0.05	
604.853	0.04	
605.271	0.04	
605.689	0.04	
606.107	0.04	
606.525	0.04	
606.943	0.03	
607.36	0.03	
607.778	0.03	
608.196	0.03	
608.613	0.03	
609.031	0.04	
609.448	0.05	
609.866	0.06	
610.283	0.07	
610.7	0.09	
611.118	0.11	
611.535	0.13	
611.952	0.14	
612.369	0.15	
612.786	0.16	
613.203	0.16	
613.62	0.16	
614.037	0.16	
614.454	0.16	
614.87	0.17	
615.287	0.17	
615.704	0.17	
616.12	0.17	
616.537	0.17	
616.953	0.18	
617.37	0.2	
617.786	0.22	
618.203	0.23	
618.619	0.25	
619.035	0.27	
619.451	0.28	
619.868	0.29	
620.284	0.31	
620.7	0.32	
621.116	0.32	
621.531	0.33	
621.947	0.34	
622.363	0.35	
622.779	0.35	
623.195	0.35	
623.61	0.35	
624.026	0.36	
624.441	0.37	
624.857	0.37	
625.272	0.38	
625.688	0.39	
626.103	0.39	
626.518	0.41	
626.933	0.42	
627.349	0.43	
627.764	0.44	
628.179	0.44	
628.594	0.45	
629.009	0.45	
629.424	0.47	
629.838	0.47	
630.253	0.48	
630.668	0.49	
631.083	0.49	
631.497	0.5	
631.912	0.51	
632.326	0.52	
632.741	0.54	
633.155	0.54	
633.57	0.56	
633.984	0.57	
634.398	0.58	
634.812	0.59	
635.226	0.6	
635.64	0.61	
636.054	0.6	
636.468	0.62	
636.882	0.62	
637.296	0.62	
637.71	0.62	
638.124	0.63	
638.537	0.63	
638.951	0.64	
639.365	0.64	
639.778	0.66	
640.192	0.66	
640.605	0.67	
641.019	0.67	
641.432	0.68	
641.845	0.69	
642.258	0.68	
642.672	0.69	
643.085	0.7	
643.498	0.7	
643.911	0.71	
644.324	0.72	
644.737	0.73	
645.149	0.72	
645.562	0.73	
645.975	0.73	
646.388	0.74	
646.8	0.74	
647.213	0.75	
647.625	0.75	
648.038	0.75	
648.45	0.76	
648.862	0.76	
649.275	0.76	
649.687	0.75	
650.099	0.76	
650.511	0.75	
650.923	0.76	
651.335	0.76	
651.747	0.77	
652.159	0.77	
652.571	0.79	
652.983	0.78	
653.395	0.8	
653.806	0.79	
654.218	0.79	
654.63	0.79	
655.041	0.79	
655.453	0.8	
655.864	0.8	
656.275	0.78	
656.687	0.7	
657.098	0.64	
657.509	0.6	
657.92	0.59	
658.332	0.62	
658.743	0.64	
659.154	0.67	
659.565	0.72	
659.975	0.76	
660.386	0.79	
660.797	0.81	
661.208	0.81	
661.618	0.82	
662.029	0.82	
662.44	0.82	
662.85	0.82	
663.261	0.81	
663.671	0.82	
664.081	0.81	
664.492	0.81	
664.902	0.81	
665.312	0.81	
665.722	0.81	
666.132	0.8	
666.542	0.81	
666.952	0.81	
667.362	0.81	
667.772	0.8	
668.182	0.82	
668.591	0.82	
669.001	0.81	
669.411	0.8	
669.82	0.79	
670.23	0.8	
670.639	0.8	
671.049	0.79	
671.458	0.8	
671.867	0.79	
672.277	0.79	
672.686	0.78	
673.095	0.79	
673.504	0.77	
673.913	0.77	
674.322	0.78	
674.731	0.79	
675.14	0.78	
675.549	0.78	
675.957	0.79	
676.366	0.79	
676.775	0.8	
677.183	0.78	
677.592	0.8	
678	0.79	
678.409	0.8	
678.817	0.78	
679.226	0.79	
679.634	0.79	
680.042	0.79	
680.45	0.79	
680.858	0.79	
681.266	0.78	
681.674	0.8	
682.082	0.79	
682.49	0.8	
682.898	0.8	
683.306	0.8	
683.714	0.81	
684.121	0.81	
684.529	0.82	
684.936	0.81	
685.344	0.82	
685.751	0.81	
686.159	0.8	
686.566	0.81	
686.973	0.8	
687.381	0.8	
687.788	0.82	
688.195	0.83	
688.602	0.83	
689.009	0.83	
689.416	0.84	
689.823	0.84	
690.23	0.83	
690.636	0.85	
691.043	0.84	
691.45	0.85	
691.857	0.85	
692.263	0.85	
692.67	0.85	
693.076	0.84	
693.483	0.84	
693.889	0.84	
694.295	0.86	
694.701	0.87	
695.108	0.86	
695.514	0.87	
695.92	0.87	
696.326	0.88	
696.732	0.87	
697.138	0.87	
697.544	0.87	
697.949	0.87	
698.355	0.87	
698.761	0.87	
699.167	0.87	
699.572	0.86	
699.978	0.88	
700.383	0.88	
700.789	0.9	
701.194	0.91	
701.599	0.91	
702.004	0.91	
702.41	0.92	
702.815	0.92	
703.22	0.91	
703.625	0.91	
704.03	0.93	
704.435	0.92	
704.84	0.92	
705.245	0.93	
705.649	0.93	
706.054	0.94	
706.459	0.94	
706.863	0.94	
707.268	0.94	
707.672	0.95	
708.077	0.94	
708.481	0.93	
708.885	0.92	
709.29	0.94	
709.694	0.94	
710.098	0.94	
710.502	0.94	
710.906	0.95	
711.31	0.96	
711.714	0.97	
712.118	0.96	
712.522	0.97	
712.926	0.97	
713.329	0.97	
713.733	0.97	
714.137	0.97	
714.54	0.97	
714.944	0.96	
715.347	0.96	
715.75	0.95	
716.154	0.96	
716.557	0.97	
716.96	0.98	
717.363	0.99	
717.767	0.99	
718.17	0.97	
718.573	0.99	
718.976	0.98	
719.378	0.98	
719.781	0.99	
720.184	0.98	
720.587	0.98	
720.989	0.97	
721.392	0.98	
721.795	0.99	
722.197	0.99	
722.6	0.99	
723.002	1	
723.404	0.99	
723.807	0.99	
724.209	0.99	
724.611	1.01	
725.013	0.99	
725.415	1	
725.817	0.98	
726.219	1.01	
726.621	0.99	
727.023	0.99	
727.425	0.98	
727.826	0.99	
728.228	0.99	
728.63	0.99	
729.031	0.98	
729.433	0.99	
729.834	0.99	
730.236	0.98	
730.637	0.99	
731.038	0.97	
731.44	0.98	
731.841	0.97	
732.242	0.96	
732.643	0.95	
733.044	0.96	
733.445	0.95	
733.846	0.94	
734.247	0.95	
734.647	0.95	
735.048	0.94	
735.449	0.95	
735.849	0.95	
736.25	0.94	
736.65	0.94	
737.051	0.94	
737.451	0.94	
737.852	0.95	
738.252	0.94	
738.652	0.93	
739.052	0.93	
739.453	0.95	
739.853	0.93	
740.253	0.94	
740.653	0.92	
741.052	0.92	
741.452	0.93	
741.852	0.93	
742.252	0.93	
742.651	0.95	
743.051	0.95	
743.451	0.94	
743.85	0.93	
744.25	0.93	
744.649	0.94	
745.048	0.93	
745.448	0.93	
745.847	0.93	
746.246	0.92	
746.645	0.92	
747.044	0.93	
747.443	0.92	
747.842	0.91	
748.241	0.91	
748.64	0.91	
749.039	0.9	
749.438	0.9	
749.836	0.9	
750.235	0.89	
750.633	0.89	
751.032	0.88	
751.43	0.87	
751.829	0.86	
752.227	0.87	
752.625	0.85	
753.024	0.83	
753.422	0.84	
753.82	0.83	
754.218	0.81	
754.616	0.81	
755.014	0.81	
755.412	0.79	
755.81	0.8	
756.208	0.79	
756.605	0.78	
757.003	0.78	
757.401	0.77	
757.798	0.75	
758.196	0.75	
758.593	0.74	
758.99	0.73	
759.388	0.72	
759.785	0.73	
760.182	0.74	
760.58	0.74	
760.977	0.74	
761.374	0.74	
761.771	0.73	
762.168	0.73	
762.565	0.72	
762.961	0.72	
763.358	0.73	
763.755	0.72	
764.152	0.72	
764.548	0.72	
764.945	0.72	
765.341	0.72	
765.738	0.7	
766.134	0.7	
766.53	0.69	
766.927	0.69	
767.323	0.69	
767.719	0.69	
768.115	0.7	
768.511	0.7	
768.907	0.7	
769.303	0.7	
769.699	0.69	
770.095	0.69	
770.491	0.68	
770.886	0.68	
771.282	0.69	
771.678	0.68	
772.073	0.68	
772.469	0.68	
772.864	0.67	
773.26	0.67	
773.655	0.68	
774.05	0.66	
774.445	0.67	
774.841	0.67	
775.236	0.66	
775.631	0.67	
776.026	0.66	
776.421	0.66	
776.816	0.66	
777.21	0.65	
777.605	0.66	
778	0.65	
778.395	0.64	
778.789	0.64	
779.184	0.64	
779.578	0.63	
779.973	0.64	
780.367	0.63	
780.761	0.62	
781.156	0.62	
781.55	0.62	
781.944	0.61	
782.338	0.6	
782.732	0.6	
783.126	0.6	
783.52	0.59	
783.914	0.59	
784.308	0.59	
784.701	0.58	
785.095	0.58	
785.489	0.58	
785.882	0.58	
786.276	0.58	
786.669	0.57	
787.063	0.57	
787.456	0.56	
787.85	0.56	
788.243	0.56	
788.636	0.55	
789.029	0.57	
789.422	0.56	
789.815	0.54	
790.208	0.55	
790.601	0.54	
790.994	0.54	
791.387	0.54	
791.78	0.54	
792.172	0.54	
792.565	0.53	
792.957	0.53	
793.35	0.53	
793.742	0.52	
794.135	0.52	
794.527	0.52	
794.919	0.5	
795.312	0.49	
795.704	0.49	
796.096	0.48	
796.488	0.49	
796.88	0.48	
797.272	0.49	
797.664	0.5	
798.056	0.51	
798.448	0.5	
798.839	0.5	
799.231	0.5	
799.623	0.5	
800.014	0.5	
800.406	0.49	
800.797	0.49	
801.189	0.5	
801.58	0.49	
801.971	0.5	
802.362	0.49	
802.754	0.49	
803.145	0.49	
803.536	0.49	
803.927	0.48	
804.318	0.48	
804.709	0.48	
805.099	0.47	
805.49	0.47	
805.881	0.47	
806.272	0.47	
806.662	0.46	
807.053	0.46	
807.443	0.45	
807.834	0.45	
808.224	0.45	
808.614	0.45	
809.005	0.45	
809.395	0.44	
809.785	0.45	
810.175	0.44	
810.565	0.44	
810.955	0.44	
811.345	0.44	
811.735	0.43	
812.125	0.43	
812.515	0.44	
812.904	0.43	
813.294	0.43	
813.684	0.43	
814.073	0.42	
814.463	0.42	
814.852	0.42	
815.241	0.42	
815.631	0.41	
816.02	0.41	
816.409	0.41	
816.798	0.41	
817.187	0.41	
817.576	0.42	
817.965	0.41	
818.354	0.4	
818.743	0.39	
819.132	0.4	
819.521	0.39	
819.909	0.39	
820.298	0.39	
820.686	0.39	
821.075	0.39	
821.463	0.38	
821.852	0.38	
822.24	0.38	
822.628	0.37	
823.017	0.38	
823.405	0.38	
823.793	0.38	
824.181	0.38	
824.569	0.37	
824.957	0.37	
825.345	0.37	
825.733	0.37	
826.12	0.36	
826.508	0.37	
826.896	0.36	
827.283	0.36	
827.671	0.36	
828.059	0.35	
828.446	0.35	
828.833	0.34	
829.221	0.34	
829.608	0.35	
829.995	0.35	
830.382	0.35	
830.769	0.35	
831.156	0.34	
831.543	0.34	
831.93	0.35	
832.317	0.35	
832.704	0.34	
833.091	0.33	
833.477	0.34	
833.864	0.34	
834.251	0.34	
834.637	0.33	
835.024	0.33	
835.41	0.33	
835.796	0.33	
836.183	0.33	
836.569	0.33	
836.955	0.32	
837.341	0.32	
837.727	0.32	
838.113	0.32	
838.499	0.31	
838.885	0.31	
839.271	0.31	
839.657	0.32	
840.043	0.32	
840.428	0.31	
840.814	0.31	
841.199	0.3	
841.585	0.29	
841.97	0.3	
842.356	0.29	
842.741	0.3	
843.126	0.3	
843.512	0.29	
843.897	0.29	
844.282	0.29	
844.667	0.28	
845.052	0.28	
845.437	0.29	
845.822	0.28	
846.206	0.28	
846.591	0.28	
846.976	0.28	
847.361	0.27	
847.745	0.28	
848.13	0.27	
848.514	0.27	
848.899	0.27	
849.283	0.26	
849.667	0.27	
850.051	0.26	
850.436	0.25	
850.82	0.25	
851.204	0.25	
851.588	0.25	
851.972	0.26	
852.356	0.25	
852.74	0.25	
853.123	0.25	
853.507	0.25	
853.891	0.24	
854.274	0.24	
854.658	0.24	
855.041	0.25	
855.425	0.24	
855.808	0.23	
856.192	0.23	
856.575	0.23	
856.958	0.22	
857.341	0.23	
857.724	0.22	
858.107	0.22	
858.49	0.23	
858.873	0.21	
859.256	0.22	
859.639	0.23	
860.022	0.22	
860.404	0.22	
860.787	0.22	
861.17	0.21	
861.552	0.21	
861.935	0.21	
862.317	0.21	
862.699	0.2	
863.082	0.2	
863.464	0.2	
863.846	0.2	
864.228	0.2	
864.61	0.2	
864.992	0.2	
865.374	0.19	
865.756	0.2	
866.138	0.2	
866.52	0.19	
866.902	0.19	
867.283	0.19	
867.665	0.19	
868.046	0.18	
868.428	0.19	
868.809	0.19	
869.191	0.18	
869.572	0.19	
869.953	0.18	
870.335	0.18	
870.716	0.18	
871.097	0.18	
871.478	0.18	
871.859	0.18	
872.24	0.17	
872.621	0.18	
873.001	0.18	
873.382	0.18	
873.763	0.17	
874.143	0.18	
874.524	0.17	
874.905	0.17	
875.285	0.17	
875.665	0.17	
876.046	0.16	
876.426	0.18	
876.806	0.17	
877.186	0.17	
877.567	0.16	
877.947	0.18	
878.327	0.17	
878.707	0.17	
879.086	0.16	
879.466	0.16	
879.846	0.17	
880.226	0.17	
880.605	0.16	
880.985	0.16	
881.365	0.17	
881.744	0.16	
882.124	0.17	
882.503	0.17	
882.882	0.17	
883.261	0.17	
883.641	0.16	
884.02	0.17	
884.399	0.15	
884.778	0.15	
885.157	0.18	
885.536	0.17	
885.915	0.17	
886.293	0.16	
886.672	0.15	
887.051	0.17	
887.429	0.16	
887.808	0.15	
888.186	0.17	
888.565	0.17	
888.943	0.18	
889.322	0.16	
889.7	0.17	
890.078	0.16	
890.456	0.15	
890.834	0.18	
891.212	0.17	
891.59	0.16	
891.968	0.16	
892.346	0.18	
892.724	0.16	
893.102	0.17	
893.479	0.17	
893.857	0.18	
894.235	0.17	
894.612	0.17	
894.99	0.17	
895.367	0.17	
895.744	0.19	
896.122	0.18	
896.499	0.17	
896.876	0.18	
897.253	0.17	
897.63	0.19	
898.007	0.18	
898.384	0.17	
898.761	0.17	
899.138	0.17	
899.515	0.18	
899.891	0.16	
900.268	0.17	
900.645	0.17	
901.021	0.16	
901.398	0.19	
901.774	0.19	
902.15	0.17	
902.527	0.2	
902.903	0.18	
903.279	0.19	
903.655	0.2	
904.031	0.2	
904.407	0.17	
904.783	0.2	
905.159	0.2	
905.535	0.2	
905.911	0.2	
906.287	0.21	
906.662	0.2	
907.038	0.21	
907.413	0.2	
907.789	0.2	
908.164	0.2	
908.54	0.23	
908.915	0.21	
909.29	0.21	
909.666	0.21	
910.041	0.21	
910.416	0.23	
910.791	0.23	
911.166	0.22	
911.541	0.22	
911.916	0.22	
912.29	0.2	
912.665	0.23	
913.04	0.2	
913.414	0.22	
913.789	0.23	
914.163	0.23	
914.538	0.23	
914.912	0.24	
915.287	0.23	
915.661	0.22	
916.035	0.2	
916.409	0.23	
916.783	0.23	
917.157	0.23	
917.531	0.21	
917.905	0.24	
918.279	0.25	
918.653	0.23	
919.027	0.23	
919.4	0.25	
919.774	0.27	
920.148	0.2	
920.521	0.29	
920.895	0.27	
921.268	0.24	
921.641	0.26	
922.015	0.23	
922.388	0.27	
922.761	0.22	
923.134	0.3	
923.507	0.27	
923.88	0.23	
924.253	0.28	
924.626	0.28	
924.999	0.3	
925.372	0.25	
925.744	0.3	
926.117	0.26	
926.489	0.27	
926.862	0.28	
927.234	0.34	
927.607	0.29	
927.979	0.28	
928.352	0.32	
928.724	0.28	
929.096	0.26	
929.468	0.3	
929.84	0.27	
930.212	0.25	
930.584	0.28	
930.956	0.25	
931.328	0.27	
931.7	0.27	
932.071	0.26	
932.443	0.26	
932.814	0.29	
933.186	0.23	
933.557	0.33	
933.929	0.32	
934.3	0.3	
934.672	0.27	
935.043	0.28	
935.414	0.29	
935.785	0.35	
936.156	0.28	
936.527	0.31	
936.898	0.35	
937.269	0.3	
937.64	0.32	
938.011	0.37	
938.381	0.39	
938.752	0.31	
939.123	0.33	
939.493	0.25	
939.864	0.27	
940.234	0.3	
940.604	0.33	
940.975	0.36	
941.345	0.38	
941.715	0.39	
942.085	0.26	
942.455	0.26	
942.825	0.46	
943.195	0.28	
943.565	0.3	
943.935	0.35	
944.305	0.3	
944.675	0.35	
945.044	0.37	
945.414	0.45	
945.783	0.45	
946.153	0.37	
946.522	0.35	
946.892	0.39	
947.261	0.36	
947.63	0.35	
947.999	0.43	
948.369	0.4	
948.738	0.42	
949.107	0.46	
949.476	0.5	
949.844	0.42	
950.213	0.37	
950.582	0.4	
950.951	0.34	
951.319	0.41	
951.688	0.51	
952.057	0.32	
952.425	0.36	
952.794	0.46	
953.162	0.44	
953.53	0.35	
953.898	0.37	
954.267	0.35	
954.635	0.45	
955.003	0.36	
955.371	0.44	
955.739	0.35	
956.107	0.45	
956.475	0.4	
956.842	0.46	
957.21	0.51	
957.578	0.34	
957.945	0.47	
958.313	0.4	
958.68	0.44	
959.048	0.49	
959.415	0.38	
959.783	0.47	
960.15	0.53	
960.517	0.46	
960.884	0.5	
961.251	0.37	
961.618	0.5	
961.985	0.38	
962.352	0.35	
962.719	0.61	
963.086	0.43	
963.452	0.55	
963.819	0.42	
964.186	0.38	
964.552	0.52	
964.919	0.57	
965.285	0.45	
965.652	0.42	
966.018	0.55	
966.384	0.53	
966.75	0.43	
967.116	0.5	
967.482	0.43	
967.848	0.44	
968.214	0.51	
968.58	0.6	
968.946	0.46	
969.312	0.42	
969.678	0.46	
970.043	0.45	
970.409	0.49	
970.774	0.47	
971.14	0.48	
971.505	0.44	
971.871	0.76	
972.236	0.5	
972.601	0.51	
972.967	0.45	
973.332	0.53	
973.697	0.36	
974.062	0.46	
974.427	0.39	
974.792	0.54	
975.156	0.38	
975.521	0.52	
975.886	0.59	
976.251	0.55	
976.615	0.48	
976.98	0.42	
977.344	0.4	
977.709	0.47	
978.073	0.29	
978.437	0.6	
978.802	0.55	
979.166	0.73	
979.53	0.39	
979.894	0.45	
980.258	0.58	
980.622	0.46	
980.986	0.5	
981.35	0.56	
981.713	0.46	
982.077	0.47	
982.441	0.48	
982.804	0.54	
983.168	0.37	
983.531	0.46	
983.895	0.46	
984.258	0.72	
984.621	0.55	
984.985	0.59	
985.348	0.36	
985.711	0.56	
986.074	0.48	
986.437	0.53	
986.8	0.61	
987.163	0.46	
987.526	0.47	
987.888	0.39	
988.251	0.43	
988.614	0.59	
988.976	0.45	
989.339	0.37	
989.701	0.68	
990.064	0.33	
990.426	0.62	
990.788	0.53	
991.151	0.73	
991.513	0.65	
991.875	0.29	
992.237	0.56	
992.599	0.86	
992.961	0.6	
993.323	0.47	
993.685	0.45	
994.046	0.43	
994.408	0.35	
994.77	0.55	
995.131	0.52	
995.493	0.42	
995.854	0.36	
996.216	0.35	
996.577	0.5	
996.938	0.86	
997.299	0.79	
997.661	0.47	
998.022	0.48	
998.383	0.54	
998.744	0.51	
999.105	0.5	
999.465	0.67	
999.826	0.43	
1000.187	0.51	
1000.548	0.4	
1000.908	0.46	
1001.269	0.39	
1001.629	0.35	
1001.99	0.61	
1002.35	0.33	
1002.711	0.3	
1003.071	0.33	
1003.431	0.38	
1003.791	0.82	
1004.151	0.63	
1004.511	0.49	
1004.871	0.64	
1005.231	0.27	
1005.591	0.47	
1005.951	0.32	
1006.311	0.45	
1006.67	0.6	
1007.03	0.23	
1007.389	0.91	
1007.749	0.3	
1008.108	0.41	
1008.468	0.53	
1008.827	0.73	
1009.186	0.69	
1009.545	0.42	
1009.905	0.95	
1010.264	0.42	
1010.623	0.4	
1010.982	0.58	
1011.341	0.47	
1011.699	0.37	
1012.058	0.77	
1012.417	0.65	
1012.776	0.33	
1013.134	0.31	
1013.493	0.91	
1013.851	0.53	
1014.21	0.48	
1014.568	0.45	
1014.926	0.75	
1015.284	0.42	
1015.643	0.79	
1016.001	0.48	
1016.359	0.61	
1016.717	0.33	
1017.075	0.33	
1017.433	0.36	
1017.79	0.59	
1018.148	0.28	
1018.506	0.29	
1018.864	0.55	
1019.221	0.33	
1019.579	0.49	
1019.936	0.5	
1020.294	0.15	
1020.651	0.16	
1021.008	0.42	
1021.365	0.51	
1021.723	0.49	
1022.08	0.73	
1022.437	0.3	
1022.794	0.5	
1023.151	0.46	
1023.507	0.52	
1023.864	1.76	
1024.221	0.33	
1024.578	0.13	
1024.934	0.37	
1025.291	0.48	
1025.647	0.69	
1026.004	0.62	
1026.36	0.36	
1026.717	0.41	
1027.073	0.49	
1027.429	1.12	
1027.785	0.7	
1028.141	0.57	
1028.497	0.29	
1028.853	0.74	
1029.209	0.38	
1029.565	0.42	
1029.921	0.53	
1030.277	0.29	
1030.632	0.49	
1030.988	0.9	
1031.343	0.72	
1031.699	0.48	
1032.054	0.48	
1032.41	0.48	
