Absorbance: 0.03	
187.923	-0	
188.387	-0	
188.851	-0	
189.315	-2.59	
189.779	-1.61	
190.242	-1.6	
190.706	-2.59	
191.17	-0	
191.633	-0	
192.097	-0	
192.56	-1.43	
193.024	-0	
193.487	-0	
193.951	-0	
194.414	-0	
194.877	-1.76	
195.34	-1.83	
195.803	-0	
196.266	-0	
196.73	-1.76	
197.193	-2.31	
197.656	-1.34	
198.118	-0	
198.581	-1.1	
199.044	-0.66	
199.507	-0.63	
199.97	-0.55	
200.432	-0.56	
200.895	-0.62	
201.358	-0.57	
201.82	-0.59	
202.283	-0.57	
202.745	-0.57	
203.207	-0.57	
203.67	-0.6	
204.132	-0.6	
204.594	-0.6	
205.056	-0.55	
205.519	-0.58	
205.981	-0.63	
206.443	-0.61	
206.905	-0.59	
207.367	-0.6	
207.829	-0.55	
208.291	-0.61	
208.752	-0.66	
209.214	-0.58	
209.676	-0.56	
210.138	-0.53	
210.599	-0.55	
211.061	-0.58	
211.522	-0.56	
211.984	-0.59	
212.445	-0.55	
212.907	-0.64	
213.368	-0.57	
213.829	-0.57	
214.291	-0.54	
214.752	-0.56	
215.213	-0.49	
215.674	-0.48	
216.135	-0.44	
216.596	-0.41	
217.057	-0.39	
217.518	-0.39	
217.979	-0.36	
218.44	-0.33	
218.9	-0.27	
219.361	-0.25	
219.822	-0.25	
220.282	-0.24	
220.743	-0.22	
221.204	-0.23	
221.664	-0.2	
222.125	-0.21	
222.585	-0.21	
223.045	-0.15	
223.506	-0.17	
223.966	-0.19	
224.426	-0.17	
224.886	-0.18	
225.346	-0.16	
225.806	-0.17	
226.266	-0.18	
226.726	-0.17	
227.186	-0.17	
227.646	-0.15	
228.106	-0.17	
228.566	-0.16	
229.025	-0.17	
229.485	-0.17	
229.945	-0.16	
230.404	-0.16	
230.864	-0.16	
231.323	-0.17	
231.783	-0.17	
232.242	-0.17	
232.702	-0.17	
233.161	-0.15	
233.62	-0.16	
234.079	-0.16	
234.538	-0.16	
234.998	-0.15	
235.457	-0.17	
235.916	-0.16	
236.375	-0.15	
236.834	-0.15	
237.292	-0.15	
237.751	-0.14	
238.21	-0.16	
238.669	-0.15	
239.127	-0.15	
239.586	-0.15	
240.045	-0.15	
240.503	-0.14	
240.962	-0.14	
241.42	-0.15	
241.878	-0.14	
242.337	-0.14	
242.795	-0.13	
243.253	-0.12	
243.712	-0.13	
244.17	-0.13	
244.628	-0.13	
245.086	-0.13	
245.544	-0.13	
246.002	-0.13	
246.46	-0.13	
246.918	-0.12	
247.375	-0.13	
247.833	-0.12	
248.291	-0.12	
248.749	-0.12	
249.206	-0.12	
249.664	-0.13	
250.121	-0.11	
250.579	-0.12	
251.036	-0.11	
251.494	-0.12	
251.951	-0.12	
252.408	-0.11	
252.866	-0.11	
253.323	-0.11	
253.78	-0.11	
254.237	-0.11	
254.694	-0.1	
255.151	-0.11	
255.608	-0.11	
256.065	-0.1	
256.522	-0.11	
256.979	-0.11	
257.435	-0.1	
257.892	-0.11	
258.349	-0.1	
258.805	-0.1	
259.262	-0.11	
259.718	-0.09	
260.175	-0.11	
260.631	-0.1	
261.088	-0.1	
261.544	-0.1	
262	-0.09	
262.457	-0.1	
262.913	-0.1	
263.369	-0.1	
263.825	-0.1	
264.281	-0.09	
264.737	-0.11	
265.193	-0.1	
265.649	-0.1	
266.105	-0.11	
266.561	-0.1	
267.016	-0.1	
267.472	-0.1	
267.928	-0.1	
268.383	-0.1	
268.839	-0.1	
269.294	-0.1	
269.75	-0.09	
270.205	-0.1	
270.661	-0.09	
271.116	-0.09	
271.571	-0.1	
272.026	-0.1	
272.482	-0.1	
272.937	-0.1	
273.392	-0.1	
273.847	-0.09	
274.302	-0.1	
274.757	-0.1	
275.212	-0.1	
275.666	-0.1	
276.121	-0.1	
276.576	-0.09	
277.031	-0.11	
277.485	-0.1	
277.94	-0.09	
278.395	-0.1	
278.849	-0.09	
279.303	-0.09	
279.758	-0.09	
280.212	-0.1	
280.667	-0.1	
281.121	-0.09	
281.575	-0.09	
282.029	-0.09	
282.483	-0.09	
282.937	-0.1	
283.391	-0.1	
283.845	-0.09	
284.299	-0.1	
284.753	-0.11	
285.207	-0.09	
285.661	-0.1	
286.115	-0.09	
286.568	-0.09	
287.022	-0.09	
287.475	-0.09	
287.929	-0.09	
288.383	-0.09	
288.836	-0.09	
289.289	-0.1	
289.743	-0.09	
290.196	-0.09	
290.649	-0.09	
291.102	-0.1	
291.556	-0.1	
292.009	-0.1	
292.462	-0.09	
292.915	-0.08	
293.368	-0.09	
293.821	-0.09	
294.274	-0.09	
294.726	-0.1	
295.179	-0.09	
295.632	-0.08	
296.084	-0.09	
296.537	-0.1	
296.99	-0.09	
297.442	-0.09	
297.895	-0.09	
298.347	-0.09	
298.8	-0.1	
299.252	-0.08	
299.704	-0.09	
300.156	-0.09	
300.609	-0.08	
301.061	-0.08	
301.513	-0.09	
301.965	-0.09	
302.417	-0.09	
302.869	-0.09	
303.321	-0.09	
303.773	-0.09	
304.224	-0.09	
304.676	-0.09	
305.128	-0.08	
305.579	-0.09	
306.031	-0.09	
306.483	-0.08	
306.934	-0.09	
307.386	-0.08	
307.837	-0.1	
308.288	-0.09	
308.74	-0.08	
309.191	-0.08	
309.642	-0.09	
310.093	-0.09	
310.544	-0.09	
310.996	-0.07	
311.447	-0.08	
311.898	-0.09	
312.348	-0.08	
312.799	-0.08	
313.25	-0.09	
313.701	-0.08	
314.152	-0.08	
314.602	-0.08	
315.053	-0.09	
315.504	-0.08	
315.954	-0.08	
316.405	-0.08	
316.855	-0.08	
317.305	-0.1	
317.756	-0.09	
318.206	-0.08	
318.656	-0.09	
319.107	-0.08	
319.557	-0.09	
320.007	-0.09	
320.457	-0.09	
320.907	-0.09	
321.357	-0.08	
321.807	-0.09	
322.257	-0.1	
322.706	-0.08	
323.156	-0.09	
323.606	-0.09	
324.056	-0.1	
324.505	-0.09	
324.955	-0.09	
325.404	-0.09	
325.854	-0.09	
326.303	-0.09	
326.753	-0.08	
327.202	-0.08	
327.651	-0.1	
328.1	-0.1	
328.55	-0.1	
328.999	-0.11	
329.448	-0.1	
329.897	-0.1	
330.346	-0.11	
330.795	-0.09	
331.244	-0.09	
331.693	-0.09	
332.141	-0.09	
332.59	-0.09	
333.039	-0.09	
333.487	-0.1	
333.936	-0.1	
334.385	-0.09	
334.833	-0.09	
335.282	-0.09	
335.73	-0.09	
336.178	-0.1	
336.627	-0.08	
337.075	-0.1	
337.523	-0.1	
337.971	-0.1	
338.419	-0.08	
338.867	-0.09	
339.315	-0.1	
339.763	-0.1	
340.211	-0.1	
340.659	-0.09	
341.107	-0.1	
341.555	-0.1	
342.002	-0.08	
342.45	-0.09	
342.898	-0.1	
343.345	-0.09	
343.793	-0.1	
344.24	-0.09	
344.688	-0.1	
345.135	-0.09	
345.582	-0.1	
346.03	-0.1	
346.477	-0.09	
346.924	-0.09	
347.371	-0.1	
347.818	-0.09	
348.265	-0.1	
348.712	-0.1	
349.159	-0.09	
349.606	-0.09	
350.053	-0.09	
350.5	-0.1	
350.947	-0.09	
351.393	-0.1	
351.84	-0.1	
352.287	-0.1	
352.733	-0.11	
353.18	-0.11	
353.626	-0.1	
354.072	-0.1	
354.519	-0.09	
354.965	-0.1	
355.411	-0.09	
355.858	-0.09	
356.304	-0.1	
356.75	-0.09	
357.196	-0.11	
357.642	-0.1	
358.088	-0.11	
358.534	-0.09	
358.98	-0.1	
359.425	-0.1	
359.871	-0.1	
360.317	-0.1	
360.763	-0.09	
361.208	-0.1	
361.654	-0.09	
362.099	-0.1	
362.545	-0.09	
362.99	-0.09	
363.436	-0.1	
363.881	-0.09	
364.326	-0.09	
364.771	-0.09	
365.217	-0.09	
365.662	-0.08	
366.107	-0.09	
366.552	-0.09	
366.997	-0.09	
367.442	-0.09	
367.887	-0.09	
368.332	-0.08	
368.776	-0.08	
369.221	-0.09	
369.666	-0.08	
370.11	-0.09	
370.555	-0.09	
371	-0.09	
371.444	-0.09	
371.888	-0.09	
372.333	-0.09	
372.777	-0.09	
373.221	-0.08	
373.666	-0.08	
374.11	-0.07	
374.554	-0.08	
374.998	-0.08	
375.442	-0.08	
375.886	-0.07	
376.33	-0.07	
376.774	-0.07	
377.218	-0.07	
377.662	-0.07	
378.106	-0.08	
378.549	-0.08	
378.993	-0.07	
379.436	-0.06	
379.88	-0.08	
380.324	-0.06	
380.767	-0.07	
381.21	-0.07	
381.654	-0.07	
382.097	-0.07	
382.54	-0.06	
382.984	-0.07	
383.427	-0.07	
383.87	-0.06	
384.313	-0.06	
384.756	-0.07	
385.199	-0.07	
385.642	-0.06	
386.085	-0.07	
386.528	-0.06	
386.97	-0.06	
387.413	-0.05	
387.856	-0.05	
388.298	-0.06	
388.741	-0.06	
389.183	-0.05	
389.626	-0.05	
390.068	-0.05	
390.511	-0.04	
390.953	-0.05	
391.395	-0.05	
391.838	-0.04	
392.28	-0.04	
392.722	-0.05	
393.164	-0.03	
393.606	-0.04	
394.048	-0.04	
394.49	-0.05	
394.932	-0.04	
395.374	-0.04	
395.815	-0.04	
396.257	-0.04	
396.699	-0.03	
397.141	-0.03	
397.582	-0.02	
398.024	-0.03	
398.465	-0.03	
398.907	-0.03	
399.348	-0.03	
399.789	-0.03	
400.231	-0.03	
400.672	-0.04	
401.113	-0.03	
401.554	-0.03	
401.995	-0.04	
402.436	-0.03	
402.877	-0.03	
403.318	-0.03	
403.759	-0.03	
404.2	-0.02	
404.641	-0.02	
405.082	-0.02	
405.522	-0.02	
405.963	-0.02	
406.404	-0.02	
406.844	-0.02	
407.285	-0.03	
407.725	-0.03	
408.166	-0.02	
408.606	-0.02	
409.046	-0.02	
409.487	-0.03	
409.927	-0.02	
410.367	-0.02	
410.807	-0.02	
411.247	-0.01	
411.687	-0.02	
412.127	-0.01	
412.567	-0.02	
413.007	-0.02	
413.447	-0.01	
413.886	-0	
414.326	0	
414.766	0	
415.205	0	
415.645	-0	
416.084	-0	
416.524	0	
416.963	0.02	
417.403	0.01	
417.842	0	
418.281	0.02	
418.721	0.01	
419.16	0.01	
419.599	0.01	
420.038	0.02	
420.477	0.03	
420.916	0.03	
421.355	0.03	
421.794	0.02	
422.233	0.03	
422.671	0.03	
423.11	0.03	
423.549	0.03	
423.987	0.04	
424.426	0.03	
424.864	0.04	
425.303	0.04	
425.741	0.04	
426.18	0.05	
426.618	0.05	
427.056	0.04	
427.495	0.06	
427.933	0.06	
428.371	0.07	
428.809	0.06	
429.247	0.06	
429.685	0.08	
430.123	0.07	
430.561	0.07	
430.999	0.07	
431.436	0.08	
431.874	0.08	
432.312	0.09	
432.749	0.08	
433.187	0.09	
433.625	0.11	
434.062	0.09	
434.5	0.09	
434.937	0.1	
435.374	0.11	
435.812	0.12	
436.249	0.12	
436.686	0.12	
437.123	0.13	
437.56	0.14	
437.997	0.13	
438.434	0.14	
438.871	0.14	
439.308	0.14	
439.745	0.15	
440.182	0.15	
440.618	0.17	
441.055	0.17	
441.492	0.17	
441.928	0.17	
442.365	0.19	
442.801	0.19	
443.238	0.19	
443.674	0.19	
444.111	0.21	
444.547	0.21	
444.983	0.21	
445.419	0.2	
445.855	0.22	
446.292	0.23	
446.728	0.23	
447.164	0.24	
447.599	0.23	
448.035	0.24	
448.471	0.25	
448.907	0.24	
449.343	0.26	
449.778	0.27	
450.214	0.27	
450.65	0.27	
451.085	0.28	
451.521	0.28	
451.956	0.28	
452.392	0.3	
452.827	0.3	
453.262	0.29	
453.697	0.31	
454.133	0.31	
454.568	0.29	
455.003	0.31	
455.438	0.32	
455.873	0.33	
456.308	0.33	
456.743	0.34	
457.178	0.34	
457.612	0.33	
458.047	0.34	
458.482	0.35	
458.917	0.34	
459.351	0.36	
459.786	0.36	
460.22	0.37	
460.655	0.36	
461.089	0.37	
461.523	0.38	
461.958	0.38	
462.392	0.38	
462.826	0.4	
463.26	0.39	
463.694	0.39	
464.128	0.39	
464.562	0.4	
464.996	0.41	
465.43	0.42	
465.864	0.42	
466.298	0.43	
466.732	0.43	
467.165	0.44	
467.599	0.43	
468.033	0.44	
468.466	0.44	
468.9	0.44	
469.333	0.46	
469.767	0.45	
470.2	0.45	
470.633	0.46	
471.066	0.47	
471.5	0.47	
471.933	0.47	
472.366	0.48	
472.799	0.49	
473.232	0.49	
473.665	0.5	
474.098	0.5	
474.531	0.5	
474.963	0.51	
475.396	0.51	
475.829	0.52	
476.262	0.53	
476.694	0.52	
477.127	0.52	
477.559	0.53	
477.992	0.54	
478.424	0.54	
478.856	0.54	
479.289	0.54	
479.721	0.56	
480.153	0.56	
480.585	0.56	
481.017	0.56	
481.449	0.56	
481.881	0.56	
482.313	0.58	
482.745	0.57	
483.177	0.57	
483.609	0.58	
484.041	0.58	
484.472	0.58	
484.904	0.59	
485.336	0.6	
485.767	0.6	
486.199	0.59	
486.63	0.61	
487.062	0.6	
487.493	0.62	
487.924	0.61	
488.355	0.62	
488.787	0.61	
489.218	0.62	
489.649	0.62	
490.08	0.62	
490.511	0.62	
490.942	0.63	
491.373	0.64	
491.804	0.64	
492.234	0.64	
492.665	0.66	
493.096	0.64	
493.526	0.66	
493.957	0.66	
494.388	0.65	
494.818	0.67	
495.249	0.67	
495.679	0.68	
496.109	0.68	
496.54	0.68	
496.97	0.68	
497.4	0.68	
497.83	0.69	
498.26	0.69	
498.69	0.7	
499.12	0.71	
499.55	0.7	
499.98	0.72	
500.41	0.71	
500.84	0.72	
501.269	0.73	
501.699	0.73	
502.129	0.73	
502.558	0.73	
502.988	0.74	
503.417	0.74	
503.847	0.74	
504.276	0.74	
504.706	0.74	
505.135	0.75	
505.564	0.76	
505.993	0.76	
506.422	0.76	
506.851	0.77	
507.28	0.75	
507.709	0.76	
508.138	0.77	
508.567	0.77	
508.996	0.77	
509.425	0.78	
509.854	0.78	
510.282	0.76	
510.711	0.77	
511.14	0.78	
511.568	0.78	
511.997	0.78	
512.425	0.78	
512.853	0.79	
513.282	0.78	
513.71	0.78	
514.138	0.78	
514.566	0.79	
514.994	0.77	
515.423	0.8	
515.851	0.78	
516.279	0.78	
516.706	0.78	
517.134	0.78	
517.562	0.78	
517.99	0.78	
518.418	0.77	
518.845	0.78	
519.273	0.77	
519.701	0.77	
520.128	0.77	
520.556	0.77	
520.983	0.76	
521.41	0.76	
521.838	0.75	
522.265	0.75	
522.692	0.76	
523.119	0.75	
523.546	0.74	
523.973	0.74	
524.4	0.73	
524.827	0.73	
525.254	0.74	
525.681	0.73	
526.108	0.72	
526.535	0.72	
526.962	0.72	
527.388	0.71	
527.815	0.71	
528.241	0.71	
528.668	0.69	
529.094	0.7	
529.521	0.7	
529.947	0.69	
530.373	0.69	
530.8	0.68	
531.226	0.67	
531.652	0.67	
532.078	0.66	
532.504	0.66	
532.93	0.66	
533.356	0.64	
533.782	0.64	
534.208	0.63	
534.634	0.64	
535.059	0.62	
535.485	0.62	
535.911	0.61	
536.336	0.6	
536.762	0.59	
537.187	0.59	
537.613	0.59	
538.038	0.58	
538.464	0.58	
538.889	0.57	
539.314	0.56	
539.739	0.56	
540.164	0.55	
540.59	0.54	
541.015	0.53	
541.44	0.54	
541.865	0.52	
542.289	0.52	
542.714	0.51	
543.139	0.5	
543.564	0.49	
543.988	0.49	
544.413	0.47	
544.838	0.47	
545.262	0.47	
545.687	0.46	
546.111	0.45	
546.535	0.44	
546.96	0.44	
547.384	0.43	
547.808	0.43	
548.233	0.42	
548.657	0.41	
549.081	0.41	
549.505	0.4	
549.929	0.39	
550.353	0.38	
550.776	0.38	
551.2	0.37	
551.624	0.36	
552.048	0.36	
552.471	0.35	
552.895	0.35	
553.319	0.34	
553.742	0.33	
554.166	0.33	
554.589	0.32	
555.012	0.32	
555.436	0.31	
555.859	0.3	
556.282	0.3	
556.705	0.29	
557.128	0.29	
557.552	0.28	
557.975	0.27	
558.398	0.27	
558.82	0.26	
559.243	0.26	
559.666	0.25	
560.089	0.24	
560.512	0.24	
560.934	0.23	
561.357	0.23	
561.779	0.23	
562.202	0.22	
562.624	0.22	
563.047	0.21	
563.469	0.21	
563.891	0.2	
564.314	0.19	
564.736	0.19	
565.158	0.2	
565.58	0.19	
566.002	0.19	
566.424	0.18	
566.846	0.18	
567.268	0.17	
567.69	0.17	
568.111	0.16	
568.533	0.16	
568.955	0.15	
569.377	0.15	
569.798	0.15	
570.22	0.14	
570.641	0.14	
571.063	0.12	
571.484	0.13	
571.905	0.12	
572.327	0.12	
572.748	0.12	
573.169	0.12	
573.59	0.11	
574.011	0.11	
574.432	0.1	
574.853	0.1	
575.274	0.1	
575.695	0.1	
576.116	0.1	
576.536	0.1	
576.957	0.09	
577.378	0.09	
577.798	0.09	
578.219	0.08	
578.64	0.08	
579.06	0.08	
579.48	0.08	
579.901	0.08	
580.321	0.08	
580.741	0.07	
581.161	0.07	
581.582	0.07	
582.002	0.07	
582.422	0.07	
582.842	0.07	
583.262	0.08	
583.682	0.07	
584.101	0.07	
584.521	0.07	
584.941	0.07	
585.361	0.06	
585.78	0.06	
586.2	0.06	
586.619	0.06	
587.039	0.06	
587.458	0.06	
587.878	0.06	
588.297	0.06	
588.716	0.06	
589.136	0.06	
589.555	0.06	
589.974	0.05	
590.393	0.05	
590.812	0.05	
591.231	0.05	
591.65	0.05	
592.069	0.05	
592.488	0.05	
592.906	0.04	
593.325	0.04	
593.744	0.04	
594.162	0.04	
594.581	0.04	
594.999	0.04	
595.418	0.04	
595.836	0.04	
596.255	0.04	
596.673	0.03	
597.091	0.03	
597.509	0.03	
597.928	0.03	
598.346	0.03	
598.764	0.03	
599.182	0.03	
599.6	0.02	
600.018	0.02	
600.435	0.02	
600.853	0.02	
601.271	0.03	
601.689	0.03	
602.106	0.03	
602.524	0.03	
602.941	0.03	
603.359	0.03	
603.776	0.03	
604.194	0.03	
604.611	0.03	
605.028	0.03	
605.446	0.02	
605.863	0.02	
606.28	0.02	
606.697	0.03	
607.114	0.03	
607.531	0.02	
607.948	0.02	
608.365	0.03	
608.782	0.03	
609.198	0.03	
609.615	0.03	
610.032	0.03	
610.448	0.03	
610.865	0.03	
611.281	0.03	
611.698	0.03	
612.114	0.03	
612.531	0.03	
612.947	0.03	
613.363	0.03	
613.779	0.03	
614.196	0.03	
614.612	0.03	
615.028	0.03	
615.444	0.03	
615.86	0.04	
616.276	0.04	
616.691	0.04	
617.107	0.03	
617.523	0.04	
617.939	0.04	
618.354	0.04	
618.77	0.04	
619.185	0.03	
619.601	0.04	
620.016	0.03	
620.432	0.03	
620.847	0.04	
621.262	0.04	
621.677	0.04	
622.093	0.03	
622.508	0.03	
622.923	0.04	
623.338	0.04	
623.753	0.04	
624.168	0.03	
624.583	0.04	
624.997	0.04	
625.412	0.04	
625.827	0.04	
626.242	0.04	
626.656	0.04	
627.071	0.04	
627.485	0.03	
627.9	0.04	
628.314	0.04	
628.728	0.03	
629.143	0.04	
629.557	0.04	
629.971	0.04	
630.385	0.04	
630.799	0.03	
631.213	0.04	
631.627	0.04	
632.041	0.03	
632.455	0.04	
632.869	0.04	
633.283	0.04	
633.697	0.04	
634.11	0.04	
634.524	0.04	
634.937	0.04	
635.351	0.04	
635.764	0.04	
636.178	0.04	
636.591	0.04	
637.004	0.03	
637.418	0.03	
637.831	0.03	
638.244	0.04	
638.657	0.04	
639.07	0.03	
639.483	0.04	
639.896	0.03	
640.309	0.03	
640.722	0.03	
641.135	0.03	
641.547	0.03	
641.96	0.03	
642.373	0.03	
642.785	0.03	
643.198	0.03	
643.61	0.03	
644.023	0.03	
644.435	0.03	
644.848	0.03	
645.26	0.03	
645.672	0.03	
646.084	0.03	
646.496	0.03	
646.908	0.03	
647.32	0.03	
647.732	0.03	
648.144	0.03	
648.556	0.03	
648.968	0.03	
649.38	0.03	
649.791	0.02	
650.203	0.02	
650.615	0.02	
651.026	0.02	
651.438	0.03	
651.849	0.02	
652.261	0.02	
652.672	0.03	
653.083	0.03	
653.495	0.03	
653.906	0.02	
654.317	0.02	
654.728	0.03	
655.139	0.02	
655.55	0.02	
655.961	0.02	
656.372	0.02	
656.783	0.02	
657.193	0.02	
657.604	0.02	
658.015	0.02	
658.425	0.02	
658.836	0.02	
659.246	0.02	
659.657	0.02	
660.067	0.02	
660.478	0.02	
660.888	0.02	
661.298	0.02	
661.708	0.02	
662.119	0.02	
662.529	0.02	
662.939	0.02	
663.349	0.02	
663.759	0.02	
664.169	0.02	
664.578	0.02	
664.988	0.02	
665.398	0.02	
665.808	0.02	
666.217	0.02	
666.627	0.02	
667.036	0.02	
667.446	0.02	
667.855	0.02	
668.265	0.02	
668.674	0.02	
669.083	0.02	
669.492	0.02	
669.902	0.02	
670.311	0.02	
670.72	0.02	
671.129	0.02	
671.538	0.01	
671.947	0.02	
672.355	0.02	
672.764	0.02	
673.173	0.02	
673.582	0.02	
673.99	0.02	
674.399	0.02	
674.807	0.02	
675.216	0.02	
675.624	0.02	
676.033	0.02	
676.441	0.02	
676.849	0.01	
677.258	0.02	
677.666	0.02	
678.074	0.01	
678.482	0.02	
678.89	0.02	
679.298	0.02	
679.706	0.02	
680.114	0.01	
680.522	0.01	
680.929	0.02	
681.337	0.02	
681.745	0.02	
682.152	0.01	
682.56	0.01	
682.967	0.01	
683.375	0.01	
683.782	0.02	
684.189	0.01	
684.597	0.01	
685.004	0.01	
685.411	0.02	
685.818	0.01	
686.225	0.01	
686.632	0.01	
687.039	0.01	
687.446	0.02	
687.853	0.01	
688.26	0.01	
688.667	0.01	
689.073	0.01	
689.48	0.01	
689.887	0.01	
690.293	0.01	
690.7	0.01	
691.106	0.01	
691.513	0.01	
691.919	0.01	
692.325	0.01	
692.732	0.01	
693.138	0.01	
693.544	0.01	
693.95	0.01	
694.356	0.01	
694.762	0.01	
695.168	0.01	
695.574	0.01	
695.98	0.01	
696.385	0.01	
696.791	0.01	
697.197	0.01	
697.602	0.01	
698.008	0.01	
698.413	0.01	
698.819	0.01	
699.224	0.01	
699.63	0.01	
700.035	0.01	
700.44	0.01	
700.845	0.01	
701.251	0.01	
701.656	0.01	
702.061	0.01	
702.466	0.01	
702.871	0.01	
703.275	0.01	
703.68	0.01	
704.085	0.01	
704.49	0.01	
704.894	0.01	
705.299	0.01	
705.704	0.01	
706.108	0.01	
706.513	0.01	
706.917	0.01	
707.321	0.01	
707.726	0.01	
708.13	0.01	
708.534	0	
708.938	0.01	
709.342	0.01	
709.746	0	
710.15	0.01	
710.554	0.01	
710.958	0.01	
711.362	0	
711.766	0.01	
712.17	0.01	
712.573	0.01	
712.977	0.01	
713.38	0.01	
713.784	0	
714.187	-0	
714.591	0.01	
714.994	0.01	
715.397	0.01	
715.801	-0	
716.204	0.01	
716.607	0.01	
717.01	0	
717.413	0	
717.816	0	
718.219	0	
718.622	0	
719.025	0	
719.428	0	
719.83	0	
720.233	0	
720.636	0	
721.038	0	
721.441	0	
721.843	0	
722.246	0	
722.648	0	
723.05	0	
723.453	-0	
723.855	0	
724.257	0	
724.659	0.01	
725.061	-0	
725.463	0	
725.865	0	
726.267	0.01	
726.669	0	
727.07	0	
727.472	0	
727.874	0	
728.276	0	
728.677	-0	
729.079	-0	
729.48	0	
729.881	-0	
730.283	-0	
730.684	0	
731.085	-0	
731.487	0	
731.888	-0	
732.289	-0	
732.69	-0	
733.091	0	
733.492	0	
733.893	0	
734.294	-0	
734.694	-0	
735.095	-0.01	
735.496	0.01	
735.896	0	
736.297	-0	
736.697	0	
737.098	0	
737.498	-0	
737.899	-0	
738.299	0	
738.699	0	
739.099	-0	
739.5	-0	
739.9	-0	
740.3	0	
740.7	0	
741.1	0	
741.5	-0	
741.899	0	
742.299	0	
742.699	-0	
743.099	-0	
743.498	0.01	
743.898	0	
744.297	-0	
744.697	-0	
745.096	0	
745.495	0	
745.895	-0	
746.294	-0	
746.693	-0	
747.092	0	
747.491	-0	
747.89	0	
748.289	-0	
748.688	-0	
749.087	-0	
749.486	-0	
749.885	-0.01	
750.284	-0	
750.682	-0	
751.081	0	
751.479	-0	
751.878	0	
752.276	-0	
752.675	0	
753.073	-0	
753.471	-0	
753.87	-0	
754.268	-0	
754.666	-0	
755.064	-0	
755.462	-0	
755.86	-0	
756.258	-0	
756.656	-0	
757.054	-0	
757.452	-0	
757.849	-0	
758.247	-0	
758.645	-0	
759.042	-0.01	
759.44	0	
759.837	-0	
760.234	0	
760.632	0	
761.029	-0	
761.426	-0	
761.823	0	
762.221	-0	
762.618	-0.01	
763.015	-0	
763.412	0	
763.809	-0	
764.205	-0.01	
764.602	-0	
764.999	0	
765.396	-0.01	
765.792	-0	
766.189	-0	
766.586	-0	
766.982	-0.01	
767.378	0	
767.775	-0	
768.171	-0	
768.567	-0.01	
768.964	-0	
769.36	-0	
769.756	-0	
770.152	0	
770.548	-0	
770.944	0	
771.34	0	
771.736	-0	
772.132	-0	
772.527	-0	
772.923	-0	
773.319	-0.01	
773.714	-0.01	
774.11	0	
774.505	-0	
774.901	-0	
775.296	-0	
775.691	-0.01	
776.087	0	
776.482	-0	
776.877	0	
777.272	-0	
777.667	0	
778.062	0	
778.457	-0	
778.852	-0	
779.247	0	
779.642	-0.01	
780.037	0	
780.431	-0	
780.826	0	
781.22	-0.01	
781.615	-0	
782.009	-0	
782.404	-0	
782.798	-0	
783.193	-0	
783.587	-0.01	
783.981	-0	
784.375	0	
784.769	-0	
785.163	-0.01	
785.557	-0.01	
785.951	-0	
786.345	0.01	
786.739	-0	
787.133	-0	
787.527	-0	
787.92	0	
788.314	-0	
788.707	-0	
789.101	-0	
789.494	-0	
789.888	-0	
790.281	-0	
790.674	-0	
791.068	-0.01	
791.461	0	
791.854	-0.01	
792.247	0.01	
792.64	-0	
793.033	0	
793.426	-0.01	
793.819	0.01	
794.212	0	
794.605	-0	
794.997	-0	
795.39	0.01	
795.782	0	
796.175	-0.01	
796.568	-0.01	
796.96	-0.01	
797.352	-0	
797.745	-0	
798.137	-0	
798.529	-0	
798.921	0	
799.314	0	
799.706	0	
800.098	-0	
800.49	0	
800.882	0	
801.273	0.01	
801.665	-0	
802.057	0.01	
802.449	-0.01	
802.84	0	
803.232	-0	
803.623	0	
804.015	-0.01	
804.406	0	
804.798	-0	
805.189	-0	
805.58	-0	
805.972	0.01	
806.363	-0	
806.754	0	
807.145	-0	
807.536	-0.01	
807.927	0	
808.318	-0	
808.709	0	
809.099	0	
809.49	0	
809.881	0	
810.271	0	
810.662	0	
811.053	0	
811.443	0	
811.833	0	
812.224	0.01	
812.614	0	
813.004	0	
813.395	0.01	
813.785	0	
814.175	0	
814.565	-0.01	
814.955	0	
815.345	0	
815.735	0	
816.124	-0.01	
816.514	-0	
816.904	-0	
817.294	0	
817.683	0	
818.073	0	
818.462	-0	
818.852	-0	
819.241	-0	
819.63	-0	
820.02	0.01	
820.409	0.01	
820.798	0	
821.187	0	
821.576	0	
821.965	0	
822.354	0	
822.743	-0	
823.132	-0	
823.521	-0	
823.91	0	
824.298	-0	
824.687	0	
825.076	0	
825.464	0.01	
825.853	-0	
826.241	0	
826.629	0.01	
827.018	-0	
827.406	-0	
827.794	0	
828.182	0	
828.571	-0	
828.959	0.01	
829.347	0	
829.735	-0	
830.122	-0	
830.51	0.01	
830.898	-0.01	
831.286	0	
831.673	0.01	
832.061	-0	
832.449	-0	
832.836	0	
833.224	0.01	
833.611	0.01	
833.998	0	
834.386	-0	
834.773	0	
835.16	-0	
835.547	0	
835.934	0	
836.321	0	
836.708	-0	
837.095	0.01	
837.482	0	
837.869	0.01	
838.256	0	
838.642	0	
839.029	0	
839.416	0.01	
839.802	0.01	
840.189	0	
840.575	-0	
840.962	0	
841.348	-0	
841.734	-0.01	
842.12	-0	
842.507	0	
842.893	0	
843.279	-0	
843.665	0	
844.051	0	
844.437	-0	
844.822	-0.01	
845.208	-0.01	
845.594	0	
845.98	0	
846.365	-0	
846.751	0	
847.136	-0	
847.522	-0	
847.907	-0	
848.293	0	
848.678	0	
849.063	0	
849.448	-0.01	
849.834	0	
850.219	-0	
850.604	0	
850.989	0.01	
851.374	-0	
851.758	-0	
852.143	-0.01	
852.528	-0.01	
852.913	0	
853.297	-0.01	
853.682	-0	
854.067	-0	
854.451	-0	
854.836	-0	
855.22	-0	
855.604	-0.01	
855.989	-0.01	
856.373	-0.01	
856.757	-0	
857.141	0	
857.525	-0	
857.909	-0.01	
858.293	-0	
858.677	-0	
859.061	-0.01	
859.445	-0.01	
859.828	-0	
860.212	-0	
860.596	-0.01	
860.979	-0.01	
861.363	-0	
861.746	-0	
862.13	-0.01	
862.513	0	
862.896	-0	
863.28	-0.02	
863.663	-0	
864.046	-0.02	
864.429	-0	
864.812	-0.01	
865.195	-0.01	
865.578	0	
865.961	-0.01	
866.344	-0.01	
866.726	-0.02	
867.109	-0.01	
867.492	-0.01	
867.874	-0.02	
868.257	-0.01	
868.639	-0.01	
869.022	-0.01	
869.404	-0.01	
869.787	-0.01	
870.169	-0.01	
870.551	-0.01	
870.933	-0.02	
871.315	-0.01	
871.697	-0.01	
872.079	-0.01	
872.461	-0.02	
872.843	-0.01	
873.225	-0.01	
873.607	-0.02	
873.989	-0.02	
874.37	-0.01	
874.752	-0.02	
875.134	-0.01	
875.515	-0.01	
875.896	-0.01	
876.278	-0.01	
876.659	-0.01	
877.041	-0.02	
877.422	-0.01	
877.803	-0.01	
878.184	-0.01	
878.565	-0.01	
878.946	-0.01	
879.327	-0.02	
879.708	-0.01	
880.089	-0	
880.47	-0	
880.851	0	
881.231	-0	
881.612	-0.01	
881.993	0	
882.373	0	
882.754	-0	
883.134	0.01	
883.514	-0.01	
883.895	0.01	
884.275	-0	
884.655	-0	
885.035	-0.01	
885.415	0	
885.795	0	
886.175	0.01	
886.555	0.02	
886.935	0.01	
887.315	0.01	
887.695	0	
888.075	0.01	
888.454	0.01	
888.834	0.01	
889.213	0	
889.593	0.01	
889.972	0.01	
890.352	0.01	
890.731	0.02	
891.11	0.02	
891.49	0.01	
891.869	0.02	
892.248	0.02	
892.627	0.01	
893.006	0.02	
893.385	0.01	
893.764	0.02	
894.143	0.01	
894.522	0.02	
894.9	0.01	
895.279	0.01	
895.658	0.02	
896.036	0.02	
896.415	0.01	
896.793	0.02	
897.172	0	
897.55	0.01	
897.928	0.01	
898.307	0.02	
898.685	0.01	
899.063	0	
899.441	0.01	
899.819	0.01	
900.197	0	
900.575	0.01	
900.953	0.01	
901.331	0	
901.708	0.01	
902.086	0.01	
902.464	0	
902.841	0.01	
903.219	0	
903.596	0.01	
903.974	-0	
904.351	-0.01	
904.729	-0	
905.106	-0.01	
905.483	-0.01	
905.86	-0.01	
906.237	0.01	
906.614	-0	
906.991	-0	
907.368	-0.01	
907.745	0	
908.122	-0	
908.499	-0.02	
908.875	-0.01	
909.252	-0.01	
909.629	-0.01	
910.005	-0	
910.382	-0.02	
910.758	-0.01	
911.135	-0.01	
911.511	-0.01	
911.887	-0.03	
912.264	-0.01	
912.64	-0.02	
913.016	-0.02	
913.392	-0.02	
913.768	-0.02	
914.144	-0.01	
914.52	-0.01	
914.896	-0.02	
915.271	-0.01	
915.647	-0.03	
916.023	-0.02	
916.398	-0.03	
916.774	-0.02	
917.15	-0.03	
917.525	-0.04	
917.9	-0.03	
918.276	-0.03	
918.651	-0.04	
919.026	-0.04	
919.402	-0.03	
919.777	-0.04	
920.152	-0.03	
920.527	-0.04	
920.902	-0.06	
921.277	-0.07	
921.652	-0.06	
922.026	-0.05	
922.401	-0.05	
922.776	-0.07	
923.15	-0.05	
923.525	-0.07	
923.9	-0.05	
924.274	-0.07	
924.648	-0.07	
925.023	-0.05	
925.397	-0.06	
925.771	-0.07	
926.146	-0.08	
926.52	-0.08	
926.894	-0.08	
927.268	-0.08	
927.642	-0.07	
928.016	-0.09	
928.39	-0.09	
928.764	-0.08	
929.137	-0.09	
929.511	-0.1	
929.885	-0.09	
930.258	-0.08	
930.632	-0.08	
931.005	-0.11	
931.379	-0.13	
931.752	-0.12	
932.125	-0.12	
932.499	-0.1	
932.872	-0.14	
933.245	-0.13	
933.618	-0.12	
933.991	-0.13	
934.364	-0.15	
934.737	-0.15	
935.11	-0.13	
935.483	-0.14	
935.856	-0.14	
936.228	-0.15	
936.601	-0.16	
936.974	-0.17	
937.346	-0.16	
937.719	-0.17	
938.091	-0.18	
938.464	-0.17	
938.836	-0.19	
939.208	-0.17	
939.58	-0.17	
939.953	-0.19	
940.325	-0.2	
940.697	-0.2	
941.069	-0.18	
941.441	-0.19	
941.813	-0.19	
942.184	-0.2	
942.556	-0.21	
942.928	-0.21	
943.3	-0.21	
943.671	-0.2	
944.043	-0.22	
944.414	-0.21	
944.786	-0.24	
945.157	-0.21	
945.529	-0.23	
945.9	-0.22	
946.271	-0.23	
946.642	-0.26	
947.013	-0.26	
947.384	-0.25	
947.756	-0.25	
948.126	-0.24	
948.497	-0.26	
948.868	-0.25	
949.239	-0.27	
949.61	-0.29	
949.98	-0.29	
950.351	-0.29	
950.722	-0.26	
951.092	-0.27	
951.463	-0.29	
951.833	-0.3	
952.203	-0.3	
952.574	-0.3	
952.944	-0.3	
953.314	-0.33	
953.684	-0.31	
954.054	-0.31	
954.424	-0.29	
954.794	-0.33	
955.164	-0.31	
955.534	-0.3	
955.904	-0.34	
956.274	-0.33	
956.643	-0.32	
957.013	-0.34	
957.383	-0.36	
957.752	-0.34	
958.122	-0.36	
958.491	-0.35	
958.86	-0.34	
959.23	-0.37	
959.599	-0.37	
959.968	-0.36	
960.337	-0.37	
960.706	-0.35	
961.075	-0.42	
961.444	-0.39	
961.813	-0.38	
962.182	-0.39	
962.551	-0.38	
962.92	-0.41	
963.288	-0.37	
963.657	-0.4	
964.026	-0.41	
964.394	-0.42	
964.763	-0.42	
965.131	-0.42	
965.499	-0.46	
965.868	-0.45	
966.236	-0.39	
966.604	-0.42	
966.972	-0.43	
967.34	-0.4	
967.708	-0.39	
968.076	-0.42	
968.444	-0.47	
968.812	-0.46	
969.18	-0.43	
969.548	-0.4	
969.915	-0.4	
970.283	-0.46	
970.651	-0.46	
971.018	-0.48	
971.386	-0.47	
971.753	-0.44	
972.121	-0.47	
972.488	-0.48	
972.855	-0.49	
973.222	-0.46	
973.589	-0.45	
973.957	-0.49	
974.324	-0.47	
974.691	-0.49	
975.057	-0.48	
975.424	-0.45	
975.791	-0.5	
976.158	-0.47	
976.525	-0.51	
976.891	-0.51	
977.258	-0.5	
977.624	-0.52	
977.991	-0.51	
978.357	-0.56	
978.724	-0.53	
979.09	-0.51	
979.456	-0.49	
979.822	-0.52	
980.189	-0.55	
980.555	-0.53	
980.921	-0.55	
981.287	-0.51	
981.653	-0.5	
982.019	-0.55	
982.384	-0.57	
982.75	-0.51	
983.116	-0.56	
983.481	-0.54	
983.847	-0.55	
984.213	-0.56	
984.578	-0.57	
984.944	-0.51	
985.309	-0.55	
985.674	-0.56	
986.039	-0.56	
986.405	-0.59	
986.77	-0.58	
987.135	-0.57	
987.5	-0.64	
987.865	-0.59	
988.23	-0.6	
988.595	-0.66	
988.96	-0.55	
989.324	-0.61	
989.689	-0.64	
990.054	-0.58	
990.418	-0.66	
990.783	-0.6	
991.147	-0.62	
991.512	-0.63	
991.876	-0.64	
992.24	-0.67	
992.605	-0.68	
992.969	-0.66	
993.333	-0.66	
993.697	-0.57	
994.061	-0.59	
994.425	-0.68	
994.789	-0.67	
995.153	-0.71	
995.517	-0.65	
995.881	-0.71	
996.244	-0.69	
996.608	-0.67	
996.971	-0.71	
997.335	-0.66	
997.698	-0.66	
998.062	-0.69	
998.425	-0.69	
998.789	-0.66	
999.152	-0.71	
999.515	-0.75	
999.878	-0.7	
1000.241	-0.68	
1000.604	-0.75	
1000.967	-0.69	
1001.33	-0.78	
1001.693	-0.7	
1002.056	-0.73	
1002.419	-0.8	
1002.781	-0.74	
1003.144	-0.76	
1003.507	-0.74	
1003.869	-0.73	
1004.232	-0.77	
1004.594	-0.65	
1004.956	-0.73	
1005.319	-0.73	
1005.681	-0.8	
1006.043	-0.73	
1006.405	-0.69	
1006.767	-0.81	
1007.129	-0.8	
1007.491	-0.78	
1007.853	-0.87	
1008.215	-0.86	
1008.577	-0.75	
1008.939	-0.79	
1009.3	-0.86	
1009.662	-0.87	
1010.024	-0.88	
1010.385	-0.81	
1010.747	-0.76	
1011.108	-0.92	
1011.469	-0.82	
1011.831	-0.88	
1012.192	-0.85	
1012.553	-0.78	
1012.914	-0.83	
1013.275	-0.78	
1013.636	-0.79	
1013.997	-0.75	
1014.358	-1	
1014.719	-0.95	
1015.08	-0.95	
1015.441	-0.95	
1015.801	-0.84	
1016.162	-0.83	
1016.523	-0.86	
1016.883	-0.91	
1017.244	-0.87	
1017.604	-0.85	
1017.964	-0.82	
1018.325	-0.88	
1018.685	-1	
1019.045	-1.02	
1019.405	-0.97	
1019.765	-0.93	
1020.125	-0.92	
1020.485	-0.93	
1020.845	-0.94	
1021.205	-0.9	
1021.565	-0.82	
1021.925	-0.93	
1022.284	-0.9	
1022.644	-0.91	
1023.004	-0.86	
1023.363	-0.96	
1023.723	-1.06	
1024.082	-0.95	
1024.441	-0.99	
1024.801	-0.92	
1025.16	-0.93	
1025.519	-1.09	
1025.878	-0.86	
1026.237	-1.14	
1026.596	-0.99	
1026.955	-1	
1027.314	-0.89	
1027.673	-0.94	
1028.032	-0.94	
1028.39	-0.84	
1028.749	-1.02	
1029.108	-0.95	
1029.466	-1.05	
1029.825	-1.05	
1030.183	-0.98	
1030.542	-1.04	
1030.9	-0.89	
1031.258	-1.16	
1031.616	-0.92	
1031.975	-0.92	
1032.333	-0.92	
