Absorbance: 0.03	
187.923	-0	
188.387	-0	
188.851	-0	
189.315	-2.58	
189.779	-1.61	
190.242	-1.6	
190.706	-2.57	
191.17	-0	
191.633	-0	
192.097	-0	
192.56	-1.43	
193.024	-0	
193.487	-0	
193.951	-0	
194.414	-0	
194.877	-1.76	
195.34	-1.84	
195.803	-0	
196.266	-0	
196.73	-1.76	
197.193	-2.32	
197.656	-1.34	
198.118	-0	
198.581	-1.1	
199.044	-0.66	
199.507	-0.63	
199.97	-0.56	
200.432	-0.57	
200.895	-0.63	
201.358	-0.57	
201.82	-0.61	
202.283	-0.59	
202.745	-0.58	
203.207	-0.59	
203.67	-0.59	
204.132	-0.64	
204.594	-0.61	
205.056	-0.57	
205.519	-0.59	
205.981	-0.64	
206.443	-0.62	
206.905	-0.59	
207.367	-0.6	
207.829	-0.56	
208.291	-0.63	
208.752	-0.68	
209.214	-0.59	
209.676	-0.57	
210.138	-0.55	
210.599	-0.55	
211.061	-0.59	
211.522	-0.56	
211.984	-0.59	
212.445	-0.55	
212.907	-0.65	
213.368	-0.56	
213.829	-0.57	
214.291	-0.55	
214.752	-0.56	
215.213	-0.49	
215.674	-0.48	
216.135	-0.45	
216.596	-0.42	
217.057	-0.39	
217.518	-0.39	
217.979	-0.37	
218.44	-0.31	
218.9	-0.26	
219.361	-0.25	
219.822	-0.24	
220.282	-0.22	
220.743	-0.21	
221.204	-0.2	
221.664	-0.18	
222.125	-0.18	
222.585	-0.19	
223.045	-0.13	
223.506	-0.15	
223.966	-0.17	
224.426	-0.14	
224.886	-0.14	
225.346	-0.13	
225.806	-0.13	
226.266	-0.14	
226.726	-0.14	
227.186	-0.13	
227.646	-0.12	
228.106	-0.13	
228.566	-0.12	
229.025	-0.13	
229.485	-0.13	
229.945	-0.12	
230.404	-0.12	
230.864	-0.13	
231.323	-0.13	
231.783	-0.12	
232.242	-0.13	
232.702	-0.12	
233.161	-0.12	
233.62	-0.12	
234.079	-0.12	
234.538	-0.12	
234.998	-0.12	
235.457	-0.13	
235.916	-0.12	
236.375	-0.11	
236.834	-0.11	
237.292	-0.12	
237.751	-0.1	
238.21	-0.11	
238.669	-0.1	
239.127	-0.11	
239.586	-0.11	
240.045	-0.1	
240.503	-0.1	
240.962	-0.1	
241.42	-0.11	
241.878	-0.1	
242.337	-0.1	
242.795	-0.09	
243.253	-0.1	
243.712	-0.1	
244.17	-0.1	
244.628	-0.09	
245.086	-0.1	
245.544	-0.11	
246.002	-0.1	
246.46	-0.09	
246.918	-0.09	
247.375	-0.09	
247.833	-0.08	
248.291	-0.08	
248.749	-0.09	
249.206	-0.08	
249.664	-0.09	
250.121	-0.08	
250.579	-0.08	
251.036	-0.08	
251.494	-0.09	
251.951	-0.08	
252.408	-0.08	
252.866	-0.07	
253.323	-0.07	
253.78	-0.07	
254.237	-0.07	
254.694	-0.07	
255.151	-0.07	
255.608	-0.07	
256.065	-0.07	
256.522	-0.07	
256.979	-0.08	
257.435	-0.07	
257.892	-0.07	
258.349	-0.07	
258.805	-0.07	
259.262	-0.08	
259.718	-0.07	
260.175	-0.07	
260.631	-0.07	
261.088	-0.07	
261.544	-0.07	
262	-0.07	
262.457	-0.07	
262.913	-0.06	
263.369	-0.07	
263.825	-0.07	
264.281	-0.06	
264.737	-0.08	
265.193	-0.06	
265.649	-0.07	
266.105	-0.06	
266.561	-0.06	
267.016	-0.07	
267.472	-0.07	
267.928	-0.07	
268.383	-0.08	
268.839	-0.07	
269.294	-0.07	
269.75	-0.07	
270.205	-0.07	
270.661	-0.07	
271.116	-0.06	
271.571	-0.07	
272.026	-0.07	
272.482	-0.06	
272.937	-0.07	
273.392	-0.08	
273.847	-0.06	
274.302	-0.07	
274.757	-0.08	
275.212	-0.08	
275.666	-0.07	
276.121	-0.07	
276.576	-0.06	
277.031	-0.08	
277.485	-0.07	
277.94	-0.07	
278.395	-0.08	
278.849	-0.07	
279.303	-0.07	
279.758	-0.07	
280.212	-0.08	
280.667	-0.07	
281.121	-0.06	
281.575	-0.07	
282.029	-0.06	
282.483	-0.07	
282.937	-0.07	
283.391	-0.07	
283.845	-0.07	
284.299	-0.07	
284.753	-0.08	
285.207	-0.07	
285.661	-0.08	
286.115	-0.07	
286.568	-0.07	
287.022	-0.07	
287.475	-0.07	
287.929	-0.07	
288.383	-0.07	
288.836	-0.06	
289.289	-0.07	
289.743	-0.06	
290.196	-0.08	
290.649	-0.07	
291.102	-0.07	
291.556	-0.08	
292.009	-0.07	
292.462	-0.06	
292.915	-0.07	
293.368	-0.07	
293.821	-0.07	
294.274	-0.06	
294.726	-0.07	
295.179	-0.06	
295.632	-0.06	
296.084	-0.07	
296.537	-0.07	
296.99	-0.07	
297.442	-0.07	
297.895	-0.07	
298.347	-0.07	
298.8	-0.08	
299.252	-0.06	
299.704	-0.07	
300.156	-0.07	
300.609	-0.06	
301.061	-0.07	
301.513	-0.06	
301.965	-0.07	
302.417	-0.07	
302.869	-0.07	
303.321	-0.07	
303.773	-0.07	
304.224	-0.07	
304.676	-0.07	
305.128	-0.06	
305.579	-0.07	
306.031	-0.07	
306.483	-0.05	
306.934	-0.07	
307.386	-0.05	
307.837	-0.07	
308.288	-0.06	
308.74	-0.07	
309.191	-0.06	
309.642	-0.07	
310.093	-0.07	
310.544	-0.07	
310.996	-0.06	
311.447	-0.06	
311.898	-0.07	
312.348	-0.06	
312.799	-0.07	
313.25	-0.07	
313.701	-0.07	
314.152	-0.06	
314.602	-0.07	
315.053	-0.07	
315.504	-0.06	
315.954	-0.06	
316.405	-0.07	
316.855	-0.07	
317.305	-0.07	
317.756	-0.06	
318.206	-0.05	
318.656	-0.07	
319.107	-0.06	
319.557	-0.07	
320.007	-0.07	
320.457	-0.07	
320.907	-0.06	
321.357	-0.06	
321.807	-0.06	
322.257	-0.08	
322.706	-0.07	
323.156	-0.06	
323.606	-0.08	
324.056	-0.08	
324.505	-0.07	
324.955	-0.06	
325.404	-0.08	
325.854	-0.07	
326.303	-0.07	
326.753	-0.07	
327.202	-0.07	
327.651	-0.08	
328.1	-0.08	
328.55	-0.09	
328.999	-0.1	
329.448	-0.09	
329.897	-0.1	
330.346	-0.09	
330.795	-0.08	
331.244	-0.07	
331.693	-0.07	
332.141	-0.08	
332.59	-0.08	
333.039	-0.07	
333.487	-0.09	
333.936	-0.08	
334.385	-0.08	
334.833	-0.07	
335.282	-0.07	
335.73	-0.07	
336.178	-0.08	
336.627	-0.07	
337.075	-0.08	
337.523	-0.08	
337.971	-0.08	
338.419	-0.07	
338.867	-0.08	
339.315	-0.09	
339.763	-0.08	
340.211	-0.08	
340.659	-0.07	
341.107	-0.07	
341.555	-0.07	
342.002	-0.08	
342.45	-0.08	
342.898	-0.07	
343.345	-0.08	
343.793	-0.09	
344.24	-0.08	
344.688	-0.08	
345.135	-0.08	
345.582	-0.08	
346.03	-0.08	
346.477	-0.07	
346.924	-0.09	
347.371	-0.09	
347.818	-0.07	
348.265	-0.07	
348.712	-0.08	
349.159	-0.07	
349.606	-0.08	
350.053	-0.08	
350.5	-0.08	
350.947	-0.07	
351.393	-0.09	
351.84	-0.09	
352.287	-0.09	
352.733	-0.09	
353.18	-0.09	
353.626	-0.09	
354.072	-0.08	
354.519	-0.07	
354.965	-0.08	
355.411	-0.09	
355.858	-0.09	
356.304	-0.09	
356.75	-0.08	
357.196	-0.09	
357.642	-0.08	
358.088	-0.1	
358.534	-0.07	
358.98	-0.09	
359.425	-0.09	
359.871	-0.09	
360.317	-0.08	
360.763	-0.09	
361.208	-0.08	
361.654	-0.08	
362.099	-0.08	
362.545	-0.08	
362.99	-0.08	
363.436	-0.09	
363.881	-0.09	
364.326	-0.07	
364.771	-0.08	
365.217	-0.08	
365.662	-0.07	
366.107	-0.09	
366.552	-0.07	
366.997	-0.07	
367.442	-0.07	
367.887	-0.07	
368.332	-0.08	
368.776	-0.07	
369.221	-0.09	
369.666	-0.07	
370.11	-0.07	
370.555	-0.07	
371	-0.07	
371.444	-0.08	
371.888	-0.08	
372.333	-0.07	
372.777	-0.08	
373.221	-0.07	
373.666	-0.07	
374.11	-0.07	
374.554	-0.06	
374.998	-0.06	
375.442	-0.07	
375.886	-0.06	
376.33	-0.06	
376.774	-0.06	
377.218	-0.06	
377.662	-0.05	
378.106	-0.07	
378.549	-0.06	
378.993	-0.06	
379.436	-0.05	
379.88	-0.06	
380.324	-0.06	
380.767	-0.05	
381.21	-0.06	
381.654	-0.06	
382.097	-0.06	
382.54	-0.05	
382.984	-0.05	
383.427	-0.06	
383.87	-0.05	
384.313	-0.05	
384.756	-0.05	
385.199	-0.05	
385.642	-0.06	
386.085	-0.05	
386.528	-0.05	
386.97	-0.05	
387.413	-0.04	
387.856	-0.05	
388.298	-0.05	
388.741	-0.04	
389.183	-0.04	
389.626	-0.04	
390.068	-0.04	
390.511	-0.04	
390.953	-0.03	
391.395	-0.04	
391.838	-0.03	
392.28	-0.03	
392.722	-0.03	
393.164	-0.03	
393.606	-0.03	
394.048	-0.03	
394.49	-0.04	
394.932	-0.03	
395.374	-0.03	
395.815	-0.03	
396.257	-0.04	
396.699	-0.01	
397.141	-0.02	
397.582	-0.02	
398.024	-0.02	
398.465	-0.02	
398.907	-0.02	
399.348	-0.02	
399.789	-0.03	
400.231	-0.02	
400.672	-0.04	
401.113	-0.02	
401.554	-0.03	
401.995	-0.03	
402.436	-0.03	
402.877	-0.01	
403.318	-0.02	
403.759	-0.02	
404.2	-0.02	
404.641	-0.02	
405.082	-0.02	
405.522	-0.01	
405.963	-0.02	
406.404	-0.03	
406.844	-0.01	
407.285	-0.01	
407.725	-0.02	
408.166	-0.01	
408.606	-0.01	
409.046	-0.01	
409.487	-0.03	
409.927	-0.01	
410.367	-0.01	
410.807	-0.01	
411.247	-0.01	
411.687	-0.02	
412.127	-0.01	
412.567	-0.02	
413.007	-0.01	
413.447	-0.01	
413.886	0.01	
414.326	0	
414.766	0.01	
415.205	0.01	
415.645	0.01	
416.084	0.01	
416.524	0.01	
416.963	0.02	
417.403	0.02	
417.842	0.01	
418.281	0.02	
418.721	0.01	
419.16	0.01	
419.599	0.01	
420.038	0.02	
420.477	0.03	
420.916	0.03	
421.355	0.03	
421.794	0.02	
422.233	0.02	
422.671	0.03	
423.11	0.03	
423.549	0.03	
423.987	0.04	
424.426	0.03	
424.864	0.05	
425.303	0.03	
425.741	0.04	
426.18	0.05	
426.618	0.05	
427.056	0.04	
427.495	0.07	
427.933	0.05	
428.371	0.06	
428.809	0.06	
429.247	0.06	
429.685	0.07	
430.123	0.07	
430.561	0.08	
430.999	0.08	
431.436	0.08	
431.874	0.07	
432.312	0.08	
432.749	0.08	
433.187	0.09	
433.625	0.09	
434.062	0.09	
434.5	0.09	
434.937	0.1	
435.374	0.1	
435.812	0.12	
436.249	0.11	
436.686	0.12	
437.123	0.11	
437.56	0.12	
437.997	0.13	
438.434	0.14	
438.871	0.13	
439.308	0.13	
439.745	0.14	
440.182	0.16	
440.618	0.15	
441.055	0.15	
441.492	0.17	
441.928	0.16	
442.365	0.16	
442.801	0.18	
443.238	0.19	
443.674	0.18	
444.111	0.2	
444.547	0.19	
444.983	0.2	
445.419	0.2	
445.855	0.21	
446.292	0.22	
446.728	0.22	
447.164	0.23	
447.599	0.23	
448.035	0.23	
448.471	0.23	
448.907	0.24	
449.343	0.25	
449.778	0.26	
450.214	0.26	
450.65	0.25	
451.085	0.26	
451.521	0.27	
451.956	0.27	
452.392	0.28	
452.827	0.27	
453.262	0.27	
453.697	0.3	
454.133	0.3	
454.568	0.28	
455.003	0.29	
455.438	0.3	
455.873	0.31	
456.308	0.31	
456.743	0.32	
457.178	0.33	
457.612	0.31	
458.047	0.32	
458.482	0.34	
458.917	0.33	
459.351	0.35	
459.786	0.34	
460.22	0.34	
460.655	0.34	
461.089	0.35	
461.523	0.37	
461.958	0.35	
462.392	0.36	
462.826	0.36	
463.26	0.37	
463.694	0.38	
464.128	0.38	
464.562	0.39	
464.996	0.39	
465.43	0.4	
465.864	0.4	
466.298	0.4	
466.732	0.4	
467.165	0.41	
467.599	0.41	
468.033	0.41	
468.466	0.4	
468.9	0.42	
469.333	0.43	
469.767	0.42	
470.2	0.43	
470.633	0.44	
471.066	0.43	
471.5	0.44	
471.933	0.43	
472.366	0.45	
472.799	0.47	
473.232	0.46	
473.665	0.47	
474.098	0.46	
474.531	0.47	
474.963	0.49	
475.396	0.48	
475.829	0.49	
476.262	0.49	
476.694	0.49	
477.127	0.5	
477.559	0.51	
477.992	0.52	
478.424	0.51	
478.856	0.51	
479.289	0.51	
479.721	0.53	
480.153	0.52	
480.585	0.53	
481.017	0.53	
481.449	0.53	
481.881	0.54	
482.313	0.54	
482.745	0.54	
483.177	0.55	
483.609	0.54	
484.041	0.56	
484.472	0.55	
484.904	0.56	
485.336	0.56	
485.767	0.57	
486.199	0.56	
486.63	0.57	
487.062	0.57	
487.493	0.58	
487.924	0.57	
488.355	0.58	
488.787	0.58	
489.218	0.58	
489.649	0.59	
490.08	0.59	
490.511	0.58	
490.942	0.6	
491.373	0.6	
491.804	0.61	
492.234	0.61	
492.665	0.62	
493.096	0.61	
493.526	0.62	
493.957	0.63	
494.388	0.63	
494.818	0.63	
495.249	0.63	
495.679	0.64	
496.109	0.64	
496.54	0.65	
496.97	0.66	
497.4	0.65	
497.83	0.66	
498.26	0.66	
498.69	0.66	
499.12	0.65	
499.55	0.67	
499.98	0.66	
500.41	0.67	
500.84	0.68	
501.269	0.69	
501.699	0.68	
502.129	0.69	
502.558	0.7	
502.988	0.69	
503.417	0.69	
503.847	0.7	
504.276	0.7	
504.706	0.71	
505.135	0.7	
505.564	0.72	
505.993	0.71	
506.422	0.72	
506.851	0.71	
507.28	0.72	
507.709	0.72	
508.138	0.73	
508.567	0.72	
508.996	0.74	
509.425	0.74	
509.854	0.74	
510.282	0.74	
510.711	0.75	
511.14	0.73	
511.568	0.75	
511.997	0.75	
512.425	0.74	
512.853	0.74	
513.282	0.75	
513.71	0.74	
514.138	0.74	
514.566	0.74	
514.994	0.72	
515.423	0.74	
515.851	0.73	
516.279	0.74	
516.706	0.73	
517.134	0.75	
517.562	0.74	
517.99	0.73	
518.418	0.73	
518.845	0.73	
519.273	0.74	
519.701	0.72	
520.128	0.72	
520.556	0.73	
520.983	0.71	
521.41	0.72	
521.838	0.72	
522.265	0.71	
522.692	0.71	
523.119	0.71	
523.546	0.71	
523.973	0.7	
524.4	0.7	
524.827	0.71	
525.254	0.69	
525.681	0.7	
526.108	0.69	
526.535	0.68	
526.962	0.68	
527.388	0.67	
527.815	0.67	
528.241	0.67	
528.668	0.66	
529.094	0.65	
529.521	0.66	
529.947	0.65	
530.373	0.65	
530.8	0.64	
531.226	0.64	
531.652	0.63	
532.078	0.63	
532.504	0.62	
532.93	0.61	
533.356	0.61	
533.782	0.61	
534.208	0.6	
534.634	0.59	
535.059	0.59	
535.485	0.58	
535.911	0.57	
536.336	0.58	
536.762	0.57	
537.187	0.55	
537.613	0.57	
538.038	0.55	
538.464	0.54	
538.889	0.53	
539.314	0.53	
539.739	0.52	
540.164	0.52	
540.59	0.51	
541.015	0.5	
541.44	0.51	
541.865	0.49	
542.289	0.48	
542.714	0.48	
543.139	0.47	
543.564	0.47	
543.988	0.45	
544.413	0.45	
544.838	0.44	
545.262	0.44	
545.687	0.43	
546.111	0.42	
546.535	0.42	
546.96	0.41	
547.384	0.4	
547.808	0.39	
548.233	0.39	
548.657	0.39	
549.081	0.37	
549.505	0.37	
549.929	0.37	
550.353	0.36	
550.776	0.36	
551.2	0.35	
551.624	0.34	
552.048	0.34	
552.471	0.33	
552.895	0.32	
553.319	0.32	
553.742	0.31	
554.166	0.31	
554.589	0.31	
555.012	0.3	
555.436	0.29	
555.859	0.29	
556.282	0.28	
556.705	0.27	
557.128	0.27	
557.552	0.26	
557.975	0.26	
558.398	0.26	
558.82	0.25	
559.243	0.24	
559.666	0.24	
560.089	0.24	
560.512	0.23	
560.934	0.23	
561.357	0.22	
561.779	0.22	
562.202	0.21	
562.624	0.2	
563.047	0.2	
563.469	0.2	
563.891	0.19	
564.314	0.19	
564.736	0.19	
565.158	0.18	
565.58	0.17	
566.002	0.18	
566.424	0.17	
566.846	0.17	
567.268	0.16	
567.69	0.16	
568.111	0.15	
568.533	0.15	
568.955	0.15	
569.377	0.14	
569.798	0.14	
570.22	0.13	
570.641	0.13	
571.063	0.12	
571.484	0.12	
571.905	0.12	
572.327	0.11	
572.748	0.11	
573.169	0.11	
573.59	0.11	
574.011	0.11	
574.432	0.1	
574.853	0.1	
575.274	0.09	
575.695	0.1	
576.116	0.09	
576.536	0.09	
576.957	0.09	
577.378	0.09	
577.798	0.09	
578.219	0.08	
578.64	0.08	
579.06	0.08	
579.48	0.08	
579.901	0.08	
580.321	0.08	
580.741	0.07	
581.161	0.07	
581.582	0.07	
582.002	0.07	
582.422	0.07	
582.842	0.07	
583.262	0.07	
583.682	0.07	
584.101	0.06	
584.521	0.06	
584.941	0.06	
585.361	0.06	
585.78	0.06	
586.2	0.06	
586.619	0.06	
587.039	0.05	
587.458	0.06	
587.878	0.06	
588.297	0.06	
588.716	0.05	
589.136	0.06	
589.555	0.06	
589.974	0.05	
590.393	0.05	
590.812	0.05	
591.231	0.05	
591.65	0.05	
592.069	0.05	
592.488	0.05	
592.906	0.04	
593.325	0.04	
593.744	0.04	
594.162	0.04	
594.581	0.04	
594.999	0.04	
595.418	0.04	
595.836	0.04	
596.255	0.04	
596.673	0.03	
597.091	0.03	
597.509	0.04	
597.928	0.03	
598.346	0.03	
598.764	0.03	
599.182	0.03	
599.6	0.02	
600.018	0.02	
600.435	0.02	
600.853	0.02	
601.271	0.02	
601.689	0.03	
602.106	0.03	
602.524	0.02	
602.941	0.02	
603.359	0.02	
603.776	0.02	
604.194	0.02	
604.611	0.02	
605.028	0.02	
605.446	0.02	
605.863	0.02	
606.28	0.02	
606.697	0.02	
607.114	0.02	
607.531	0.02	
607.948	0.02	
608.365	0.03	
608.782	0.02	
609.198	0.03	
609.615	0.03	
610.032	0.03	
610.448	0.03	
610.865	0.03	
611.281	0.03	
611.698	0.03	
612.114	0.03	
612.531	0.03	
612.947	0.03	
613.363	0.03	
613.779	0.03	
614.196	0.03	
614.612	0.03	
615.028	0.03	
615.444	0.03	
615.86	0.03	
616.276	0.04	
616.691	0.03	
617.107	0.03	
617.523	0.04	
617.939	0.03	
618.354	0.03	
618.77	0.04	
619.185	0.04	
619.601	0.03	
620.016	0.03	
620.432	0.04	
620.847	0.04	
621.262	0.04	
621.677	0.04	
622.093	0.04	
622.508	0.03	
622.923	0.04	
623.338	0.04	
623.753	0.03	
624.168	0.04	
624.583	0.04	
624.997	0.04	
625.412	0.04	
625.827	0.04	
626.242	0.04	
626.656	0.04	
627.071	0.04	
627.485	0.04	
627.9	0.03	
628.314	0.03	
628.728	0.04	
629.143	0.04	
629.557	0.03	
629.971	0.04	
630.385	0.04	
630.799	0.04	
631.213	0.04	
631.627	0.04	
632.041	0.04	
632.455	0.04	
632.869	0.04	
633.283	0.04	
633.697	0.04	
634.11	0.04	
634.524	0.04	
634.937	0.04	
635.351	0.03	
635.764	0.04	
636.178	0.03	
636.591	0.03	
637.004	0.03	
637.418	0.04	
637.831	0.03	
638.244	0.04	
638.657	0.03	
639.07	0.04	
639.483	0.04	
639.896	0.03	
640.309	0.03	
640.722	0.03	
641.135	0.03	
641.547	0.03	
641.96	0.03	
642.373	0.03	
642.785	0.03	
643.198	0.03	
643.61	0.03	
644.023	0.03	
644.435	0.03	
644.848	0.03	
645.26	0.03	
645.672	0.03	
646.084	0.03	
646.496	0.03	
646.908	0.03	
647.32	0.03	
647.732	0.03	
648.144	0.03	
648.556	0.03	
648.968	0.03	
649.38	0.03	
649.791	0.03	
650.203	0.03	
650.615	0.02	
651.026	0.03	
651.438	0.03	
651.849	0.03	
652.261	0.02	
652.672	0.02	
653.083	0.02	
653.495	0.02	
653.906	0.02	
654.317	0.02	
654.728	0.02	
655.139	0.02	
655.55	0.02	
655.961	0.02	
656.372	0.02	
656.783	0.02	
657.193	0.02	
657.604	0.02	
658.015	0.02	
658.425	0.02	
658.836	0.02	
659.246	0.02	
659.657	0.02	
660.067	0.02	
660.478	0.02	
660.888	0.02	
661.298	0.02	
661.708	0.02	
662.119	0.02	
662.529	0.02	
662.939	0.02	
663.349	0.02	
663.759	0.02	
664.169	0.02	
664.578	0.02	
664.988	0.02	
665.398	0.02	
665.808	0.02	
666.217	0.02	
666.627	0.02	
667.036	0.02	
667.446	0.02	
667.855	0.02	
668.265	0.02	
668.674	0.02	
669.083	0.02	
669.492	0.02	
669.902	0.02	
670.311	0.02	
670.72	0.02	
671.129	0.02	
671.538	0.02	
671.947	0.02	
672.355	0.02	
672.764	0.01	
673.173	0.02	
673.582	0.02	
673.99	0.02	
674.399	0.02	
674.807	0.02	
675.216	0.02	
675.624	0.02	
676.033	0.02	
676.441	0.01	
676.849	0.02	
677.258	0.02	
677.666	0.02	
678.074	0.01	
678.482	0.02	
678.89	0.02	
679.298	0.02	
679.706	0.02	
680.114	0.02	
680.522	0.02	
680.929	0.01	
681.337	0.01	
681.745	0.02	
682.152	0.01	
682.56	0.02	
682.967	0.02	
683.375	0.02	
683.782	0.02	
684.189	0.02	
684.597	0.02	
685.004	0.02	
685.411	0.02	
685.818	0.01	
686.225	0.02	
686.632	0.02	
687.039	0.02	
687.446	0.01	
687.853	0.01	
688.26	0.02	
688.667	0.01	
689.073	0.01	
689.48	0.01	
689.887	0.02	
690.293	0.01	
690.7	0.02	
691.106	0.02	
691.513	0.01	
691.919	0.02	
692.325	0.01	
692.732	0.01	
693.138	0.01	
693.544	0.01	
693.95	0.01	
694.356	0.01	
694.762	0.01	
695.168	0.01	
695.574	0.02	
695.98	0.01	
696.385	0.01	
696.791	0.01	
697.197	0.01	
697.602	0.01	
698.008	0.01	
698.413	0.01	
698.819	0.02	
699.224	0.01	
699.63	0.01	
700.035	0.01	
700.44	0.01	
700.845	0.01	
701.251	0.02	
701.656	0.01	
702.061	0.01	
702.466	0.01	
702.871	0.01	
703.275	0.01	
703.68	0.01	
704.085	0	
704.49	0.01	
704.894	0.01	
705.299	0.01	
705.704	0.01	
706.108	0.01	
706.513	0.01	
706.917	0.01	
707.321	0.01	
707.726	0.01	
708.13	0.01	
708.534	0	
708.938	0.01	
709.342	0.01	
709.746	0	
710.15	0.01	
710.554	0.01	
710.958	0.01	
711.362	0.01	
711.766	0.01	
712.17	0.01	
712.573	0	
712.977	0.01	
713.38	0.01	
713.784	0.01	
714.187	0	
714.591	0.01	
714.994	0.01	
715.397	0	
715.801	0.01	
716.204	0	
716.607	0.01	
717.01	0.01	
717.413	0.01	
717.816	0.01	
718.219	0	
718.622	0.01	
719.025	0.01	
719.428	0.01	
719.83	0	
720.233	0.01	
720.636	0	
721.038	0.01	
721.441	0.01	
721.843	0.01	
722.246	0	
722.648	0	
723.05	0.01	
723.453	0	
723.855	0	
724.257	0	
724.659	0	
725.061	-0	
725.463	0	
725.865	0.01	
726.267	0	
726.669	0	
727.07	0	
727.472	0.01	
727.874	0.01	
728.276	0	
728.677	-0	
729.079	0.01	
729.48	0	
729.881	0	
730.283	0	
730.684	0.01	
731.085	0	
731.487	0.01	
731.888	0	
732.289	-0	
732.69	0.01	
733.091	0.01	
733.492	0	
733.893	0	
734.294	0	
734.694	0	
735.095	0	
735.496	0.01	
735.896	0	
736.297	0	
736.697	0.01	
737.098	-0	
737.498	0.01	
737.899	-0	
738.299	0	
738.699	0.01	
739.099	0	
739.5	0	
739.9	0.01	
740.3	0	
740.7	0	
741.1	0	
741.5	-0	
741.899	0.01	
742.299	0.01	
742.699	0	
743.099	-0	
743.498	0.01	
743.898	0	
744.297	-0	
744.697	0	
745.096	0.01	
745.495	0	
745.895	0.01	
746.294	0	
746.693	0.01	
747.092	0	
747.491	0	
747.89	0.01	
748.289	0	
748.688	0	
749.087	0	
749.486	0	
749.885	0	
750.284	0	
750.682	0	
751.081	0	
751.479	0	
751.878	0.01	
752.276	-0	
752.675	0	
753.073	0	
753.471	-0	
753.87	0	
754.268	-0	
754.666	-0	
755.064	-0	
755.462	0	
755.86	-0	
756.258	0	
756.656	-0	
757.054	0	
757.452	-0	
757.849	0	
758.247	-0	
758.645	-0	
759.042	-0	
759.44	-0.01	
759.837	-0	
760.234	0	
760.632	0.01	
761.029	-0	
761.426	0	
761.823	0.01	
762.221	-0	
762.618	0	
763.015	0.01	
763.412	0.01	
763.809	0	
764.205	0	
764.602	0	
764.999	0	
765.396	-0	
765.792	0.01	
766.189	0	
766.586	0	
766.982	0	
767.378	0.01	
767.775	0	
768.171	0	
768.567	-0	
768.964	0	
769.36	-0	
769.756	0	
770.152	0	
770.548	0	
770.944	-0	
771.34	-0	
771.736	-0	
772.132	0	
772.527	0	
772.923	0	
773.319	-0	
773.714	-0	
774.11	0.01	
774.505	0	
774.901	-0	
775.296	0	
775.691	-0	
776.087	0.01	
776.482	-0	
776.877	0.01	
777.272	0	
777.667	0	
778.062	0.01	
778.457	0	
778.852	0	
779.247	0	
779.642	-0	
780.037	0.01	
780.431	0	
780.826	-0	
781.22	-0	
781.615	-0	
782.009	0.01	
782.404	0	
782.798	0	
783.193	-0	
783.587	-0	
783.981	0	
784.375	0.01	
784.769	-0	
785.163	-0	
785.557	0	
785.951	0	
786.345	0	
786.739	0	
787.133	0	
787.527	0	
787.92	0	
788.314	0	
788.707	0	
789.101	-0	
789.494	0	
789.888	0	
790.281	0	
790.674	0.01	
791.068	0	
791.461	-0	
791.854	0	
792.247	0.01	
792.64	0	
793.033	0	
793.426	0	
793.819	0.01	
794.212	0.01	
794.605	-0	
794.997	0	
795.39	0.01	
795.782	0.01	
796.175	-0	
796.568	-0	
796.96	-0	
797.352	0	
797.745	0	
798.137	-0	
798.529	0	
798.921	0.01	
799.314	-0	
799.706	0.01	
800.098	0.01	
800.49	-0	
800.882	0.01	
801.273	0.01	
801.665	0.01	
802.057	0	
802.449	0.01	
802.84	0	
803.232	0	
803.623	0	
804.015	-0	
804.406	0.01	
804.798	-0	
805.189	-0	
805.58	0	
805.972	0.01	
806.363	0.01	
806.754	0.01	
807.145	-0	
807.536	-0	
807.927	0.01	
808.318	-0.01	
808.709	0.01	
809.099	0.01	
809.49	0	
809.881	0.01	
810.271	0.01	
810.662	0.01	
811.053	0	
811.443	0	
811.833	0.01	
812.224	0.01	
812.614	0.01	
813.004	0.01	
813.395	0	
813.785	0.01	
814.175	0.01	
814.565	-0	
814.955	0	
815.345	0	
815.735	0.01	
816.124	0	
816.514	0	
816.904	0.01	
817.294	0.01	
817.683	0.01	
818.073	0	
818.462	0	
818.852	0.01	
819.241	0.01	
819.63	0	
820.02	0	
820.409	0.01	
820.798	0.01	
821.187	0.01	
821.576	0	
821.965	0.01	
822.354	0.01	
822.743	0.01	
823.132	0.01	
823.521	0.01	
823.91	0.01	
824.298	0	
824.687	0.01	
825.076	0.01	
825.464	0.01	
825.853	-0	
826.241	0.01	
826.629	0.01	
827.018	-0	
827.406	0	
827.794	0	
828.182	0	
828.571	0.01	
828.959	0.01	
829.347	0	
829.735	0	
830.122	0	
830.51	0.01	
830.898	-0	
831.286	0	
831.673	0.01	
832.061	-0	
832.449	-0.01	
832.836	0.01	
833.224	0	
833.611	0.02	
833.998	0.01	
834.386	0.01	
834.773	-0	
835.16	0	
835.547	0	
835.934	0	
836.321	0.01	
836.708	0	
837.095	0.01	
837.482	0.01	
837.869	0.01	
838.256	0.01	
838.642	0.01	
839.029	0.01	
839.416	0	
839.802	0	
840.189	0	
840.575	0	
840.962	0	
841.348	-0	
841.734	0	
842.12	0	
842.507	0	
842.893	0	
843.279	0	
843.665	-0	
844.051	-0	
844.437	-0	
844.822	-0	
845.208	-0.01	
845.594	0.01	
845.98	0	
846.365	-0	
846.751	-0	
847.136	0	
847.522	-0	
847.907	-0.01	
848.293	-0	
848.678	0	
849.063	0.01	
849.448	-0	
849.834	-0	
850.219	0	
850.604	0	
850.989	-0	
851.374	0	
851.758	-0.01	
852.143	-0	
852.528	-0	
852.913	0.01	
853.297	-0	
853.682	0.01	
854.067	-0	
854.451	0.01	
854.836	-0	
855.22	0	
855.604	-0	
855.989	-0	
856.373	-0.01	
856.757	0.01	
857.141	0	
857.525	-0.01	
857.909	-0.01	
858.293	-0	
858.677	-0	
859.061	-0.01	
859.445	-0.01	
859.828	-0.01	
860.212	0	
860.596	0	
860.979	-0.01	
861.363	-0	
861.746	-0	
862.13	-0	
862.513	-0	
862.896	0	
863.28	-0	
863.663	-0.01	
864.046	-0.02	
864.429	0.01	
864.812	0	
865.195	-0.01	
865.578	0.01	
865.961	-0	
866.344	0.01	
866.726	-0	
867.109	0.01	
867.492	-0	
867.874	0	
868.257	0.01	
868.639	0.01	
869.022	0.01	
869.404	0.01	
869.787	0	
870.169	0	
870.551	0	
870.933	0	
871.315	0.01	
871.697	0	
872.079	0.01	
872.461	0.01	
872.843	0	
873.225	0.01	
873.607	0.01	
873.989	0.01	
874.37	0.01	
874.752	0.01	
875.134	0.02	
875.515	0.02	
875.896	0.02	
876.278	0.02	
876.659	0.02	
877.041	0.01	
877.422	0.02	
877.803	0.02	
878.184	0.03	
878.565	0.03	
878.946	0.04	
879.327	0.03	
879.708	0.03	
880.089	0.03	
880.47	0.03	
880.851	0.04	
881.231	0.05	
881.612	0.04	
881.993	0.05	
882.373	0.06	
882.754	0.05	
883.134	0.05	
883.514	0.05	
883.895	0.06	
884.275	0.05	
884.655	0.05	
885.035	0.06	
885.415	0.06	
885.795	0.07	
886.175	0.07	
886.555	0.08	
886.935	0.07	
887.315	0.07	
887.695	0.07	
888.075	0.08	
888.454	0.08	
888.834	0.09	
889.213	0.08	
889.593	0.09	
889.972	0.09	
890.352	0.09	
890.731	0.1	
891.11	0.09	
891.49	0.1	
891.869	0.1	
892.248	0.1	
892.627	0.1	
893.006	0.1	
893.385	0.1	
893.764	0.11	
894.143	0.1	
894.522	0.1	
894.9	0.11	
895.279	0.11	
895.658	0.1	
896.036	0.1	
896.415	0.1	
896.793	0.1	
897.172	0.11	
897.55	0.1	
897.928	0.1	
898.307	0.11	
898.685	0.11	
899.063	0.1	
899.441	0.11	
899.819	0.11	
900.197	0.1	
900.575	0.11	
900.953	0.1	
901.331	0.1	
901.708	0.1	
902.086	0.1	
902.464	0.09	
902.841	0.1	
903.219	0.11	
903.596	0.1	
903.974	0.1	
904.351	0.1	
904.729	0.1	
905.106	0.09	
905.483	0.09	
905.86	0.1	
906.237	0.1	
906.614	0.1	
906.991	0.1	
907.368	0.08	
907.745	0.09	
908.122	0.09	
908.499	0.09	
908.875	0.09	
909.252	0.09	
909.629	0.08	
910.005	0.08	
910.382	0.07	
910.758	0.07	
911.135	0.07	
911.511	0.07	
911.887	0.07	
912.264	0.07	
912.64	0.06	
913.016	0.07	
913.392	0.06	
913.768	0.06	
914.144	0.07	
914.52	0.07	
914.896	0.05	
915.271	0.06	
915.647	0.05	
916.023	0.05	
916.398	0.05	
916.774	0.05	
917.15	0.05	
917.525	0.04	
917.9	0.03	
918.276	0.05	
918.651	0.04	
919.026	0.04	
919.402	0.03	
919.777	0.03	
920.152	0.04	
920.527	0.02	
920.902	0	
921.277	0.01	
921.652	0.01	
922.026	0.02	
922.401	0.02	
922.776	0	
923.15	0.01	
923.525	-0.01	
923.9	0.01	
924.274	-0.01	
924.648	-0.02	
925.023	-0.01	
925.397	-0.03	
925.771	-0.02	
926.146	-0.03	
926.52	-0.03	
926.894	-0.03	
927.268	-0.03	
927.642	-0.04	
928.016	-0.03	
928.39	-0.05	
928.764	-0.05	
929.137	-0.06	
929.511	-0.07	
929.885	-0.05	
930.258	-0.06	
930.632	-0.05	
931.005	-0.08	
931.379	-0.11	
931.752	-0.1	
932.125	-0.09	
932.499	-0.08	
932.872	-0.08	
933.245	-0.1	
933.618	-0.09	
933.991	-0.12	
934.364	-0.11	
934.737	-0.12	
935.11	-0.1	
935.483	-0.13	
935.856	-0.12	
936.228	-0.13	
936.601	-0.13	
936.974	-0.14	
937.346	-0.14	
937.719	-0.15	
938.091	-0.16	
938.464	-0.16	
938.836	-0.16	
939.208	-0.15	
939.58	-0.16	
939.953	-0.16	
940.325	-0.19	
940.697	-0.17	
941.069	-0.17	
941.441	-0.2	
941.813	-0.17	
942.184	-0.19	
942.556	-0.19	
942.928	-0.2	
943.3	-0.19	
943.671	-0.2	
944.043	-0.21	
944.414	-0.2	
944.786	-0.23	
945.157	-0.21	
945.529	-0.21	
945.9	-0.23	
946.271	-0.21	
946.642	-0.25	
947.013	-0.25	
947.384	-0.24	
947.756	-0.24	
948.126	-0.24	
948.497	-0.26	
948.868	-0.26	
949.239	-0.27	
949.61	-0.28	
949.98	-0.28	
950.351	-0.28	
950.722	-0.25	
951.092	-0.27	
951.463	-0.27	
951.833	-0.3	
952.203	-0.29	
952.574	-0.29	
952.944	-0.28	
953.314	-0.32	
953.684	-0.29	
954.054	-0.3	
954.424	-0.29	
954.794	-0.31	
955.164	-0.31	
955.534	-0.3	
955.904	-0.33	
956.274	-0.32	
956.643	-0.33	
957.013	-0.34	
957.383	-0.34	
957.752	-0.34	
958.122	-0.35	
958.491	-0.36	
958.86	-0.33	
959.23	-0.36	
959.599	-0.37	
959.968	-0.36	
960.337	-0.37	
960.706	-0.35	
961.075	-0.41	
961.444	-0.38	
961.813	-0.38	
962.182	-0.38	
962.551	-0.37	
962.92	-0.4	
963.288	-0.37	
963.657	-0.39	
964.026	-0.4	
964.394	-0.41	
964.763	-0.41	
965.131	-0.41	
965.499	-0.45	
965.868	-0.44	
966.236	-0.4	
966.604	-0.41	
966.972	-0.43	
967.34	-0.37	
967.708	-0.37	
968.076	-0.4	
968.444	-0.45	
968.812	-0.45	
969.18	-0.43	
969.548	-0.4	
969.915	-0.4	
970.283	-0.44	
970.651	-0.48	
971.018	-0.47	
971.386	-0.43	
971.753	-0.42	
972.121	-0.45	
972.488	-0.47	
972.855	-0.48	
973.222	-0.43	
973.589	-0.44	
973.957	-0.49	
974.324	-0.46	
974.691	-0.47	
975.057	-0.47	
975.424	-0.45	
975.791	-0.49	
976.158	-0.45	
976.525	-0.51	
976.891	-0.5	
977.258	-0.5	
977.624	-0.49	
977.991	-0.49	
978.357	-0.55	
978.724	-0.53	
979.09	-0.49	
979.456	-0.48	
979.822	-0.53	
980.189	-0.54	
980.555	-0.53	
980.921	-0.55	
981.287	-0.51	
981.653	-0.48	
982.019	-0.54	
982.384	-0.55	
982.75	-0.5	
983.116	-0.54	
983.481	-0.54	
983.847	-0.54	
984.213	-0.55	
984.578	-0.58	
984.944	-0.5	
985.309	-0.54	
985.674	-0.56	
986.039	-0.54	
986.405	-0.57	
986.77	-0.56	
987.135	-0.55	
987.5	-0.64	
987.865	-0.58	
988.23	-0.6	
988.595	-0.65	
988.96	-0.55	
989.324	-0.62	
989.689	-0.65	
990.054	-0.58	
990.418	-0.65	
990.783	-0.59	
991.147	-0.62	
991.512	-0.62	
991.876	-0.64	
992.24	-0.66	
992.605	-0.68	
992.969	-0.65	
993.333	-0.66	
993.697	-0.57	
994.061	-0.58	
994.425	-0.68	
994.789	-0.65	
995.153	-0.71	
995.517	-0.64	
995.881	-0.71	
996.244	-0.69	
996.608	-0.66	
996.971	-0.7	
997.335	-0.65	
997.698	-0.64	
998.062	-0.69	
998.425	-0.69	
998.789	-0.65	
999.152	-0.71	
999.515	-0.73	
999.878	-0.7	
1000.241	-0.67	
1000.604	-0.75	
1000.967	-0.68	
1001.33	-0.76	
1001.693	-0.69	
1002.056	-0.73	
1002.419	-0.8	
1002.781	-0.73	
1003.144	-0.76	
1003.507	-0.74	
1003.869	-0.72	
1004.232	-0.76	
1004.594	-0.64	
1004.956	-0.72	
1005.319	-0.7	
1005.681	-0.81	
1006.043	-0.73	
1006.405	-0.69	
1006.767	-0.82	
1007.129	-0.78	
1007.491	-0.79	
1007.853	-0.86	
1008.215	-0.88	
1008.577	-0.75	
1008.939	-0.79	
1009.3	-0.85	
1009.662	-0.86	
1010.024	-0.86	
1010.385	-0.81	
1010.747	-0.77	
1011.108	-0.93	
1011.469	-0.82	
1011.831	-0.88	
1012.192	-0.84	
1012.553	-0.77	
1012.914	-0.83	
1013.275	-0.8	
1013.636	-0.8	
1013.997	-0.74	
1014.358	-0.99	
1014.719	-0.95	
1015.08	-0.92	
1015.441	-0.94	
1015.801	-0.85	
1016.162	-0.82	
1016.523	-0.86	
1016.883	-0.9	
1017.244	-0.88	
1017.604	-0.84	
1017.964	-0.83	
1018.325	-0.88	
1018.685	-1	
1019.045	-1	
1019.405	-0.97	
1019.765	-0.93	
1020.125	-0.91	
1020.485	-0.92	
1020.845	-0.93	
1021.205	-0.91	
1021.565	-0.81	
1021.925	-0.93	
1022.284	-0.89	
1022.644	-0.92	
1023.004	-0.86	
1023.363	-0.96	
1023.723	-1.04	
1024.082	-0.96	
1024.441	-0.99	
1024.801	-0.91	
1025.16	-0.92	
1025.519	-1.11	
1025.878	-0.85	
1026.237	-1.14	
1026.596	-0.98	
1026.955	-1	
1027.314	-0.9	
1027.673	-0.96	
1028.032	-0.95	
1028.39	-0.84	
1028.749	-1.02	
1029.108	-0.94	
1029.466	-1.06	
1029.825	-1.06	
1030.183	-0.99	
1030.542	-1.03	
1030.9	-0.89	
1031.258	-1.16	
1031.616	-0.9	
1031.975	-0.9	
1032.333	-0.9	
