Absorbance:209		
187.658	-0.47	
188.124	-0.47	
188.589	-0.47	
189.055	-0	
189.521	-0.77	
189.987	-0	
190.452	-0.3	
190.918	-0.14	
191.384	-0.52	
191.849	-0	
192.314	-0.44	
192.78	1.11	
193.245	-0	
193.711	-0	
194.176	-1.33	
194.641	-0	
195.106	-0.35	
195.571	-0.01	
196.037	0.09	
196.502	-0.02	
196.967	-0	
197.431	0.25	
197.896	-0.5	
198.361	1.72	
198.826	1.51	
199.291	1.51	
199.755	1.5	
200.22	1.54	
200.685	1.5	
201.149	1.49	
201.614	1.54	
202.078	1.52	
202.543	1.53	
203.007	1.52	
203.471	1.55	
203.936	1.54	
204.4	1.6	
204.864	1.58	
205.328	1.58	
205.792	1.56	
206.256	1.6	
206.72	1.6	
207.184	1.57	
207.648	1.61	
208.112	1.59	
208.576	1.58	
209.039	1.6	
209.503	1.57	
209.967	1.58	
210.43	1.54	
210.894	1.53	
211.357	1.51	
211.821	1.52	
212.284	1.49	
212.747	1.45	
213.211	1.43	
213.674	1.41	
214.137	1.37	
214.6	1.32	
215.063	1.29	
215.526	1.24	
215.989	1.21	
216.452	1.16	
216.915	1.09	
217.378	1.04	
217.841	0.97	
218.304	0.92	
218.767	0.85	
219.229	0.81	
219.692	0.75	
220.154	0.67	
220.617	0.62	
221.079	0.57	
221.542	0.52	
222.004	0.47	
222.467	0.43	
222.929	0.38	
223.391	0.33	
223.853	0.31	
224.315	0.27	
224.777	0.24	
225.239	0.22	
225.701	0.2	
226.163	0.17	
226.625	0.15	
227.087	0.13	
227.549	0.11	
228.011	0.1	
228.472	0.09	
228.934	0.08	
229.396	0.07	
229.857	0.07	
230.319	0.05	
230.78	0.05	
231.242	0.05	
231.703	0.05	
232.164	0.04	
232.626	0.04	
233.087	0.04	
233.548	0.03	
234.009	0.04	
234.47	0.04	
234.931	0.03	
235.392	0.03	
235.853	0.03	
236.314	0.03	
236.775	0.03	
237.235	0.03	
237.696	0.02	
238.157	0.02	
238.618	0.03	
239.078	0.02	
239.539	0.02	
239.999	0.02	
240.46	0.02	
240.92	0.02	
241.38	0.02	
241.841	0.02	
242.301	0.01	
242.761	0.01	
243.221	0.01	
243.681	0.01	
244.141	0.01	
244.601	0	
245.061	0	
245.521	0.01	
245.981	0	
246.441	-0	
246.901	-0	
247.36	-0	
247.82	-0	
248.28	-0	
248.739	-0	
249.199	-0	
249.658	-0	
250.117	-0	
250.577	-0	
251.036	-0	
251.495	-0	
251.955	-0	
252.414	-0	
252.873	-0	
253.332	-0	
253.791	-0	
254.25	-0	
254.709	-0	
255.168	-0	
255.627	-0	
256.085	-0	
256.544	-0	
257.003	-0	
257.461	-0	
257.92	-0	
258.379	-0	
258.837	-0	
259.295	-0	
259.754	-0	
260.212	-0	
260.67	-0	
261.129	-0	
261.587	-0	
262.045	-0	
262.503	-0	
262.961	-0	
263.419	-0	
263.877	-0	
264.335	-0	
264.793	-0	
265.251	-0	
265.708	-0	
266.166	-0	
266.624	-0	
267.081	-0	
267.539	-0	
267.996	-0	
268.454	-0	
268.911	-0	
269.369	-0	
269.826	-0	
270.283	-0	
270.74	-0	
271.198	-0	
271.655	-0	
272.112	-0	
272.569	-0	
273.026	-0	
273.483	-0	
273.94	-0	
274.396	-0	
274.853	-0	
275.31	-0	
275.767	-0	
276.223	-0	
276.68	-0	
277.136	-0	
277.593	-0	
278.049	-0	
278.506	-0	
278.962	-0	
279.418	-0	
279.874	-0	
280.331	-0	
280.787	-0	
281.243	-0	
281.699	-0	
282.155	-0	
282.611	-0	
283.067	-0	
283.522	-0	
283.978	-0	
284.434	-0	
284.89	-0	
285.345	-0	
285.801	-0	
286.256	-0	
286.712	-0	
287.167	-0	
287.623	-0	
288.078	-0	
288.533	-0	
288.989	-0	
289.444	-0	
289.899	-0	
290.354	-0	
290.809	-0	
291.264	-0	
291.719	-0	
292.174	-0	
292.629	-0	
293.084	-0	
293.538	-0	
293.993	-0	
294.448	-0	
294.902	-0	
295.357	-0	
295.811	-0	
296.266	-0	
296.72	-0	
297.174	-0	
297.629	-0	
298.083	-0	
298.537	-0	
298.991	-0	
299.446	-0	
299.9	-0	
300.354	-0	
300.808	-0	
301.261	-0	
301.715	-0	
302.169	-0	
302.623	-0	
303.077	-0	
303.53	-0	
303.984	-0	
304.437	-0	
304.891	-0	
305.344	-0	
305.798	-0	
306.251	-0	
306.704	-0	
307.158	-0	
307.611	-0	
308.064	-0	
308.517	-0	
308.97	-0	
309.423	-0	
309.876	-0	
310.329	-0	
310.782	-0	
311.235	-0	
311.688	-0	
312.14	-0	
312.593	-0	
313.046	-0	
313.498	-0	
313.951	-0	
314.403	-0	
314.856	-0	
315.308	-0	
315.76	-0	
316.213	-0	
316.665	-0	
317.117	-0	
317.569	-0	
318.021	-0	
318.473	-0	
318.925	-0	
319.377	-0	
319.829	-0	
320.281	-0	
320.733	-0	
321.184	-0	
321.636	-0	
322.088	-0	
322.539	-0	
322.991	-0	
323.442	-0	
323.894	-0	
324.345	-0	
324.796	-0	
325.248	-0	
325.699	-0	
326.15	-0	
326.601	-0	
327.052	-0	
327.503	-0	
327.954	-0	
328.405	-0	
328.856	-0	
329.307	-0	
329.758	-0	
330.208	-0	
330.659	-0	
331.11	-0	
331.56	-0	
332.011	-0	
332.461	-0	
332.912	-0	
333.362	-0	
333.813	-0	
334.263	-0	
334.713	-0	
335.163	-0	
335.613	-0	
336.063	-0	
336.513	-0	
336.963	-0	
337.413	-0	
337.863	-0	
338.313	-0	
338.763	-0	
339.213	-0	
339.662	0	
340.112	-0	
340.562	-0	
341.011	0	
341.461	0	
341.91	0	
342.359	0	
342.809	0.01	
343.258	0.01	
343.707	0.01	
344.156	0.01	
344.606	0.01	
345.055	0.01	
345.504	0.01	
345.953	0.01	
346.402	0.01	
346.85	0.01	
347.299	0.01	
347.748	0.02	
348.197	0.02	
348.645	0.02	
349.094	0.02	
349.543	0.02	
349.991	0.02	
350.44	0.02	
350.888	0.03	
351.336	0.02	
351.785	0.02	
352.233	0.03	
352.681	0.03	
353.13	0.03	
353.578	0.03	
354.026	0.03	
354.474	0.03	
354.922	0.03	
355.37	0.04	
355.818	0.04	
356.265	0.04	
356.713	0.04	
357.161	0.05	
357.609	0.05	
358.056	0.05	
358.504	0.05	
358.951	0.05	
359.399	0.05	
359.846	0.05	
360.294	0.05	
360.741	0.06	
361.188	0.06	
361.635	0.06	
362.083	0.06	
362.53	0.06	
362.977	0.06	
363.424	0.07	
363.871	0.07	
364.318	0.07	
364.765	0.07	
365.211	0.08	
365.658	0.08	
366.105	0.08	
366.552	0.08	
366.998	0.09	
367.445	0.08	
367.891	0.09	
368.338	0.08	
368.784	0.09	
369.231	0.09	
369.677	0.09	
370.123	0.1	
370.569	0.1	
371.016	0.11	
371.462	0.11	
371.908	0.12	
372.354	0.13	
372.8	0.13	
373.246	0.13	
373.692	0.13	
374.137	0.14	
374.583	0.14	
375.029	0.14	
375.475	0.14	
375.92	0.15	
376.366	0.15	
376.811	0.15	
377.257	0.15	
377.702	0.15	
378.147	0.16	
378.593	0.16	
379.038	0.15	
379.483	0.15	
379.928	0.15	
380.374	0.15	
380.819	0.15	
381.264	0.15	
381.709	0.16	
382.153	0.16	
382.598	0.17	
383.043	0.18	
383.488	0.18	
383.933	0.19	
384.377	0.19	
384.822	0.19	
385.266	0.2	
385.711	0.21	
386.155	0.21	
386.6	0.22	
387.044	0.22	
387.488	0.22	
387.933	0.23	
388.377	0.23	
388.821	0.23	
389.265	0.22	
389.709	0.22	
390.153	0.23	
390.597	0.23	
391.041	0.24	
391.485	0.23	
391.929	0.25	
392.372	0.24	
392.816	0.24	
393.26	0.24	
393.703	0.23	
394.147	0.22	
394.59	0.21	
395.034	0.22	
395.477	0.23	
395.921	0.24	
396.364	0.25	
396.807	0.26	
397.25	0.27	
397.693	0.26	
398.137	0.26	
398.58	0.25	
399.023	0.24	
399.466	0.24	
399.908	0.22	
400.351	0.22	
400.794	0.22	
401.237	0.23	
401.679	0.24	
402.122	0.25	
402.565	0.25	
403.007	0.25	
403.45	0.26	
403.892	0.26	
404.334	0.25	
404.777	0.25	
405.219	0.26	
405.661	0.25	
406.103	0.25	
406.546	0.25	
406.988	0.25	
407.43	0.25	
407.872	0.25	
408.314	0.24	
408.755	0.25	
409.197	0.25	
409.639	0.25	
410.081	0.24	
410.522	0.24	
410.964	0.24	
411.406	0.24	
411.847	0.25	
412.289	0.24	
412.73	0.24	
413.171	0.24	
413.613	0.23	
414.054	0.23	
414.495	0.23	
414.936	0.23	
415.377	0.23	
415.818	0.23	
416.259	0.23	
416.7	0.22	
417.141	0.22	
417.582	0.22	
418.023	0.22	
418.464	0.22	
418.904	0.22	
419.345	0.22	
419.786	0.21	
420.226	0.21	
420.667	0.2	
421.107	0.21	
421.547	0.21	
421.988	0.19	
422.428	0.19	
422.868	0.17	
423.308	0.17	
423.749	0.17	
424.189	0.18	
424.629	0.17	
425.069	0.18	
425.509	0.18	
425.949	0.18	
426.388	0.18	
426.828	0.17	
427.268	0.18	
427.708	0.18	
428.147	0.18	
428.587	0.18	
429.026	0.18	
429.466	0.17	
429.905	0.17	
430.344	0.17	
430.784	0.16	
431.223	0.15	
431.662	0.14	
432.101	0.14	
432.541	0.14	
432.98	0.14	
433.419	0.15	
433.858	0.16	
434.296	0.16	
434.735	0.16	
435.174	0.17	
435.613	0.17	
436.052	0.16	
436.49	0.16	
436.929	0.16	
437.367	0.15	
437.806	0.15	
438.244	0.15	
438.683	0.15	
439.121	0.15	
439.559	0.15	
439.998	0.15	
440.436	0.15	
440.874	0.15	
441.312	0.15	
441.75	0.15	
442.188	0.15	
442.626	0.15	
443.064	0.16	
443.502	0.15	
443.939	0.15	
444.377	0.14	
444.815	0.15	
445.253	0.15	
445.69	0.14	
446.128	0.14	
446.565	0.14	
447.002	0.14	
447.44	0.14	
447.877	0.13	
448.314	0.13	
448.752	0.13	
449.189	0.14	
449.626	0.13	
450.063	0.14	
450.5	0.13	
450.937	0.13	
451.374	0.13	
451.811	0.14	
452.248	0.14	
452.684	0.14	
453.121	0.13	
453.558	0.14	
453.994	0.14	
454.431	0.15	
454.867	0.14	
455.304	0.14	
455.74	0.14	
456.176	0.15	
456.613	0.15	
457.049	0.15	
457.485	0.15	
457.921	0.15	
458.357	0.15	
458.793	0.15	
459.229	0.14	
459.665	0.15	
460.101	0.14	
460.537	0.14	
460.973	0.14	
461.408	0.14	
461.844	0.14	
462.28	0.13	
462.715	0.13	
463.151	0.14	
463.586	0.15	
464.022	0.14	
464.457	0.14	
464.892	0.14	
465.328	0.14	
465.763	0.13	
466.198	0.13	
466.633	0.13	
467.068	0.12	
467.503	0.12	
467.938	0.13	
468.373	0.12	
468.808	0.13	
469.243	0.13	
469.677	0.13	
470.112	0.13	
470.547	0.14	
470.981	0.14	
471.416	0.14	
471.85	0.14	
472.285	0.14	
472.719	0.14	
473.153	0.14	
473.588	0.14	
474.022	0.13	
474.456	0.13	
474.89	0.13	
475.324	0.12	
475.758	0.12	
476.192	0.12	
476.626	0.11	
477.06	0.1	
477.494	0.1	
477.928	0.1	
478.361	0.1	
478.795	0.1	
479.229	0.1	
479.662	0.1	
480.096	0.1	
480.529	0.1	
480.962	0.09	
481.396	0.09	
481.829	0.09	
482.262	0.08	
482.695	0.07	
483.129	0.07	
483.562	0.06	
483.995	0.06	
484.428	0.06	
484.861	0.06	
485.294	0.05	
485.726	0.05	
486.159	0.04	
486.592	0.03	
487.024	0.02	
487.457	0.01	
487.89	0.01	
488.322	0.01	
488.755	0.01	
489.187	0.01	
489.619	0.02	
490.052	0.03	
490.484	0.03	
490.916	0.04	
491.348	0.04	
491.78	0.04	
492.212	0.04	
492.644	0.05	
493.076	0.04	
493.508	0.04	
493.94	0.05	
494.372	0.04	
494.804	0.04	
495.235	0.04	
495.667	0.04	
496.098	0.03	
496.53	0.03	
496.961	0.03	
497.393	0.02	
497.824	0.02	
498.256	0.02	
498.687	0.02	
499.118	0.02	
499.549	0.02	
499.98	0.03	
500.411	0.03	
500.842	0.03	
501.273	0.03	
501.704	0.04	
502.135	0.03	
502.566	0.03	
502.997	0.03	
503.427	0.02	
503.858	0.02	
504.289	0.02	
504.719	0.02	
505.15	0.02	
505.58	0.02	
506.01	0.01	
506.441	0.02	
506.871	0.02	
507.301	0.02	
507.731	0.02	
508.161	0.02	
508.592	0.02	
509.022	0.02	
509.451	0.03	
509.881	0.02	
510.311	0.02	
510.741	0.03	
511.171	0.02	
511.6	0.03	
512.03	0.02	
512.46	0.02	
512.889	0.02	
513.319	0.02	
513.748	0.02	
514.178	0.02	
514.607	0.02	
515.036	0.03	
515.465	0.03	
515.895	0.03	
516.324	0.03	
516.753	0.03	
517.182	0.04	
517.611	0.04	
518.04	0.03	
518.469	0.03	
518.897	0.03	
519.326	0.03	
519.755	0.03	
520.183	0.03	
520.612	0.03	
521.041	0.03	
521.469	0.03	
521.898	0.03	
522.326	0.04	
522.754	0.04	
523.183	0.04	
523.611	0.04	
524.039	0.04	
524.467	0.04	
524.895	0.04	
525.323	0.04	
525.751	0.04	
526.179	0.04	
526.607	0.04	
527.035	0.04	
527.463	0.04	
527.89	0.04	
528.318	0.04	
528.745	0.04	
529.173	0.04	
529.601	0.04	
530.028	0.04	
530.455	0.04	
530.883	0.04	
531.31	0.04	
531.737	0.03	
532.164	0.03	
532.592	0.03	
533.019	0.03	
533.446	0.04	
533.873	0.04	
534.3	0.03	
534.726	0.03	
535.153	0.03	
535.58	0.03	
536.007	0.02	
536.433	0.02	
536.86	0.02	
537.287	0.02	
537.713	0.03	
538.139	0.02	
538.566	0.03	
538.992	0.02	
539.418	0.02	
539.845	0.02	
540.271	0.02	
540.697	0.01	
541.123	0.01	
541.549	0.01	
541.975	0.01	
542.401	0.01	
542.827	0.02	
543.253	0.01	
543.678	0.01	
544.104	0.01	
544.53	0.01	
544.955	0.01	
545.381	0.01	
545.806	0.01	
546.232	0.01	
546.657	0	
547.083	0.01	
547.508	0.01	
547.933	0	
548.358	0	
548.783	0	
549.209	-0	
549.634	0	
550.059	0	
550.483	0	
550.908	0	
551.333	0.01	
551.758	0.01	
552.183	0.01	
552.607	0.01	
553.032	0.01	
553.456	0	
553.881	0	
554.305	-0	
554.73	-0	
555.154	-0	
555.578	-0	
556.003	-0	
556.427	-0	
556.851	-0	
557.275	-0	
557.699	-0	
558.123	-0	
558.547	0	
558.971	0	
559.395	0.01	
559.818	0.01	
560.242	0.01	
560.666	0.01	
561.089	0.01	
561.513	0	
561.936	-0	
562.36	-0	
562.783	-0	
563.206	-0	
563.63	-0	
564.053	-0	
564.476	-0	
564.899	-0	
565.322	-0	
565.745	-0	
566.168	-0	
566.591	-0	
567.014	-0	
567.437	-0	
567.86	-0	
568.282	-0	
568.705	-0	
569.128	-0	
569.55	-0	
569.973	-0	
570.395	-0	
570.817	-0	
571.24	-0	
571.662	-0	
572.084	-0	
572.506	-0	
572.928	-0	
573.35	-0	
573.772	-0	
574.194	-0	
574.616	-0	
575.038	-0	
575.46	-0	
575.882	-0	
576.303	-0	
576.725	-0	
577.147	-0	
577.568	-0	
577.99	-0	
578.411	-0	
578.832	-0	
579.254	-0	
579.675	-0	
580.096	-0	
580.517	-0	
580.938	-0	
581.36	-0	
581.781	-0	
582.201	-0	
582.622	-0	
583.043	-0	
583.464	-0	
583.885	-0	
584.305	-0	
584.726	-0	
585.147	-0	
585.567	-0	
585.988	-0	
586.408	-0	
586.828	-0	
587.249	-0	
587.669	-0	
588.089	-0	
588.509	-0	
588.929	-0	
589.349	-0	
589.769	-0	
590.189	-0	
590.609	-0	
591.029	-0	
591.449	-0	
591.868	-0	
592.288	-0	
592.708	-0	
593.127	-0	
593.547	-0	
593.966	-0	
594.386	-0	
594.805	-0	
595.224	-0	
595.643	-0	
596.063	-0	
596.482	-0	
596.901	-0	
597.32	-0	
597.739	-0	
598.158	-0	
598.577	-0	
598.995	-0	
599.414	-0	
599.833	-0	
600.252	-0	
600.67	-0	
601.089	-0	
601.507	-0	
601.926	-0	
602.344	-0	
602.762	-0	
603.181	-0	
603.599	-0	
604.017	-0	
604.435	-0	
604.853	-0	
605.271	-0	
605.689	-0	
606.107	-0	
606.525	-0	
606.943	-0	
607.36	-0	
607.778	-0	
608.196	-0	
608.613	-0	
609.031	-0	
609.448	-0	
609.866	-0	
610.283	-0	
610.7	-0	
611.118	-0	
611.535	-0	
611.952	-0	
612.369	-0	
612.786	-0	
613.203	-0	
613.62	-0	
614.037	-0	
614.454	-0	
614.87	-0	
615.287	-0	
615.704	-0	
616.12	-0	
616.537	-0	
616.953	-0	
617.37	-0	
617.786	-0	
618.203	-0	
618.619	-0	
619.035	-0	
619.451	-0	
619.868	-0	
620.284	-0	
620.7	-0	
621.116	-0	
621.531	-0	
621.947	-0	
622.363	-0	
622.779	-0	
623.195	-0	
623.61	-0	
624.026	-0	
624.441	-0	
624.857	-0	
625.272	-0	
625.688	-0	
626.103	-0	
626.518	-0	
626.933	-0	
627.349	-0	
627.764	-0	
628.179	-0	
628.594	-0	
629.009	-0	
629.424	-0	
629.838	-0	
630.253	-0	
630.668	-0	
631.083	-0	
631.497	-0	
631.912	-0	
632.326	-0	
632.741	-0	
633.155	-0	
633.57	-0	
633.984	-0	
634.398	-0	
634.812	-0	
635.226	-0	
635.64	0	
636.054	0	
636.468	0	
636.882	0	
637.296	-0	
637.71	-0	
638.124	-0	
638.537	-0	
638.951	-0	
639.365	-0	
639.778	0	
640.192	0	
640.605	0	
641.019	0	
641.432	0	
641.845	0.01	
642.258	0.01	
642.672	0.01	
643.085	0.01	
643.498	0.01	
643.911	0.01	
644.324	0.01	
644.737	0	
645.149	0.01	
645.562	0.01	
645.975	0.01	
646.388	0.01	
646.8	0.01	
647.213	0.01	
647.625	0.01	
648.038	0.01	
648.45	0.01	
648.862	0.01	
649.275	0	
649.687	0	
650.099	-0	
650.511	-0	
650.923	-0	
651.335	-0	
651.747	-0	
652.159	-0	
652.571	-0	
652.983	0	
653.395	0	
653.806	-0	
654.218	-0	
654.63	0	
655.041	-0	
655.453	0	
655.864	-0	
656.275	-0	
656.687	-0	
657.098	-0	
657.509	-0	
657.92	-0	
658.332	-0	
658.743	-0	
659.154	-0	
659.565	-0	
659.975	-0	
660.386	-0	
660.797	-0	
661.208	0	
661.618	0	
662.029	0	
662.44	0.01	
662.85	0	
663.261	0	
663.671	0.01	
664.081	0.01	
664.492	0.01	
664.902	0.01	
665.312	0	
665.722	0	
666.132	0	
666.542	0	
666.952	0	
667.362	0	
667.772	0.01	
668.182	0.01	
668.591	0.01	
669.001	0.01	
669.411	0.01	
669.82	0.01	
670.23	0.01	
670.639	0.01	
671.049	0	
671.458	0	
671.867	0	
672.277	0	
672.686	-0	
673.095	-0	
673.504	-0	
673.913	-0	
674.322	-0	
674.731	-0	
675.14	-0	
675.549	0	
675.957	0	
676.366	0	
676.775	0.01	
677.183	0	
677.592	0	
678	0	
678.409	0	
678.817	0	
679.226	0	
679.634	-0	
680.042	-0	
680.45	-0	
680.858	-0	
681.266	-0	
681.674	-0	
682.082	0	
682.49	-0	
682.898	0	
683.306	0	
683.714	0	
684.121	0.01	
684.529	0	
684.936	0.01	
685.344	0	
685.751	0	
686.159	-0	
686.566	-0	
686.973	-0	
687.381	-0	
687.788	0	
688.195	0	
688.602	0	
689.009	0	
689.416	0.01	
689.823	0.01	
690.23	0.01	
690.636	0.01	
691.043	0.01	
691.45	0.01	
691.857	0.01	
692.263	0.01	
692.67	0	
693.076	0	
693.483	0	
693.889	0	
694.295	0	
694.701	0.01	
695.108	0.01	
695.514	0.01	
695.92	0.01	
696.326	0.01	
696.732	0.01	
697.138	0.01	
697.544	0.01	
697.949	0	
698.355	0	
698.761	0	
699.167	0	
699.572	0	
699.978	0.01	
700.383	0.01	
700.789	0.01	
701.194	0.01	
701.599	0.02	
702.004	0.02	
702.41	0.02	
702.815	0.02	
703.22	0.02	
703.625	0.01	
704.03	0.02	
704.435	0.01	
704.84	0.01	
705.245	0.02	
705.649	0.02	
706.054	0.02	
706.459	0.02	
706.863	0.02	
707.268	0.02	
707.672	0.02	
708.077	0.02	
708.481	0.01	
708.885	0.01	
709.29	0.01	
709.694	0.01	
710.098	0.01	
710.502	0.01	
710.906	0.02	
711.31	0.02	
711.714	0.02	
712.118	0.02	
712.522	0.02	
712.926	0.02	
713.329	0.02	
713.733	0.02	
714.137	0.02	
714.54	0.02	
714.944	0.02	
715.347	0.02	
715.75	0.01	
716.154	0.01	
716.557	0.01	
716.96	0.02	
717.363	0.02	
717.767	0.02	
718.17	0.02	
718.573	0.02	
718.976	0.02	
719.378	0.02	
719.781	0.02	
720.184	0.02	
720.587	0.02	
720.989	0.02	
721.392	0.02	
721.795	0.02	
722.197	0.02	
722.6	0.02	
723.002	0.03	
723.404	0.03	
723.807	0.03	
724.209	0.03	
724.611	0.03	
725.013	0.03	
725.415	0.03	
725.817	0.03	
726.219	0.03	
726.621	0.03	
727.023	0.03	
727.425	0.03	
727.826	0.03	
728.228	0.03	
728.63	0.03	
729.031	0.03	
729.433	0.03	
729.834	0.03	
730.236	0.03	
730.637	0.03	
731.038	0.03	
731.44	0.02	
731.841	0.02	
732.242	0.02	
732.643	0.01	
733.044	0.02	
733.445	0.01	
733.846	0.02	
734.247	0.02	
734.647	0.02	
735.048	0.02	
735.449	0.02	
735.849	0.02	
736.25	0.02	
736.65	0.02	
737.051	0.02	
737.451	0.02	
737.852	0.02	
738.252	0.02	
738.652	0.02	
739.052	0.02	
739.453	0.03	
739.853	0.03	
740.253	0.02	
740.653	0.02	
741.052	0.02	
741.452	0.03	
741.852	0.03	
742.252	0.03	
742.651	0.04	
743.051	0.04	
743.451	0.04	
743.85	0.04	
744.25	0.04	
744.649	0.04	
745.048	0.04	
745.448	0.04	
745.847	0.05	
746.246	0.05	
746.645	0.05	
747.044	0.05	
747.443	0.05	
747.842	0.05	
748.241	0.05	
748.64	0.05	
749.039	0.05	
749.438	0.05	
749.836	0.05	
750.235	0.05	
750.633	0.04	
751.032	0.05	
751.43	0.04	
751.829	0.04	
752.227	0.04	
752.625	0.04	
753.024	0.04	
753.422	0.03	
753.82	0.03	
754.218	0.03	
754.616	0.03	
755.014	0.02	
755.412	0.02	
755.81	0.02	
756.208	0.02	
756.605	0.02	
757.003	0.02	
757.401	0.02	
757.798	0.01	
758.196	0.01	
758.593	0.01	
758.99	0.01	
759.388	0.01	
759.785	0.01	
760.182	0.01	
760.58	0.02	
760.977	0.02	
761.374	0.02	
761.771	0.02	
762.168	0.02	
762.565	0.02	
762.961	0.02	
763.358	0.02	
763.755	0.03	
764.152	0.03	
764.548	0.03	
764.945	0.03	
765.341	0.03	
765.738	0.03	
766.134	0.03	
766.53	0.03	
766.927	0.03	
767.323	0.03	
767.719	0.04	
768.115	0.04	
768.511	0.05	
768.907	0.05	
769.303	0.05	
769.699	0.05	
770.095	0.04	
770.491	0.04	
770.886	0.05	
771.282	0.05	
771.678	0.06	
772.073	0.05	
772.469	0.06	
772.864	0.05	
773.26	0.06	
773.655	0.06	
774.05	0.06	
774.445	0.06	
774.841	0.07	
775.236	0.07	
775.631	0.07	
776.026	0.07	
776.421	0.07	
776.816	0.08	
777.21	0.08	
777.605	0.08	
778	0.07	
778.395	0.08	
778.789	0.08	
779.184	0.08	
779.578	0.08	
779.973	0.07	
780.367	0.08	
780.761	0.08	
781.156	0.08	
781.55	0.08	
781.944	0.08	
782.338	0.07	
782.732	0.07	
783.126	0.07	
783.52	0.07	
783.914	0.07	
784.308	0.08	
784.701	0.08	
785.095	0.08	
785.489	0.08	
785.882	0.08	
786.276	0.08	
786.669	0.08	
787.063	0.08	
787.456	0.08	
787.85	0.08	
788.243	0.09	
788.636	0.09	
789.029	0.09	
789.422	0.08	
789.815	0.08	
790.208	0.08	
790.601	0.08	
790.994	0.08	
791.387	0.09	
791.78	0.1	
792.172	0.09	
792.565	0.09	
792.957	0.1	
793.35	0.09	
793.742	0.09	
794.135	0.1	
794.527	0.09	
794.919	0.09	
795.312	0.08	
795.704	0.07	
796.096	0.08	
796.488	0.08	
796.88	0.08	
797.272	0.09	
797.664	0.1	
798.056	0.11	
798.448	0.11	
798.839	0.12	
799.231	0.12	
799.623	0.12	
800.014	0.12	
800.406	0.12	
800.797	0.13	
801.189	0.12	
801.58	0.13	
801.971	0.13	
802.362	0.13	
802.754	0.13	
803.145	0.13	
803.536	0.13	
803.927	0.14	
804.318	0.14	
804.709	0.14	
805.099	0.14	
805.49	0.14	
805.881	0.14	
806.272	0.14	
806.662	0.14	
807.053	0.14	
807.443	0.13	
807.834	0.13	
808.224	0.13	
808.614	0.13	
809.005	0.14	
809.395	0.14	
809.785	0.14	
810.175	0.14	
810.565	0.14	
810.955	0.14	
811.345	0.15	
811.735	0.15	
812.125	0.14	
812.515	0.15	
812.904	0.15	
813.294	0.15	
813.684	0.15	
814.073	0.15	
814.463	0.15	
814.852	0.14	
815.241	0.15	
815.631	0.15	
816.02	0.15	
816.409	0.16	
816.798	0.16	
817.187	0.16	
817.576	0.16	
817.965	0.15	
818.354	0.15	
818.743	0.15	
819.132	0.16	
819.521	0.15	
819.909	0.16	
820.298	0.17	
820.686	0.16	
821.075	0.16	
821.463	0.16	
821.852	0.16	
822.24	0.16	
822.628	0.16	
823.017	0.16	
823.405	0.17	
823.793	0.16	
824.181	0.17	
824.569	0.17	
824.957	0.17	
825.345	0.17	
825.733	0.16	
826.12	0.17	
826.508	0.18	
826.896	0.17	
827.283	0.17	
827.671	0.17	
828.059	0.17	
828.446	0.17	
828.833	0.16	
829.221	0.17	
829.608	0.17	
829.995	0.18	
830.382	0.18	
830.769	0.18	
831.156	0.18	
831.543	0.18	
831.93	0.18	
832.317	0.18	
832.704	0.18	
833.091	0.18	
833.477	0.18	
833.864	0.18	
834.251	0.19	
834.637	0.18	
835.024	0.18	
835.41	0.18	
835.796	0.18	
836.183	0.18	
836.569	0.18	
836.955	0.18	
837.341	0.18	
837.727	0.18	
838.113	0.18	
838.499	0.18	
838.885	0.19	
839.271	0.18	
839.657	0.19	
840.043	0.19	
840.428	0.19	
840.814	0.18	
841.199	0.18	
841.585	0.18	
841.97	0.18	
842.356	0.18	
842.741	0.18	
843.126	0.18	
843.512	0.19	
843.897	0.18	
844.282	0.18	
844.667	0.17	
845.052	0.18	
845.437	0.18	
845.822	0.18	
846.206	0.18	
846.591	0.18	
846.976	0.18	
847.361	0.17	
847.745	0.18	
848.13	0.17	
848.514	0.18	
848.899	0.18	
849.283	0.17	
849.667	0.17	
850.051	0.17	
850.436	0.17	
850.82	0.17	
851.204	0.17	
851.588	0.16	
851.972	0.17	
852.356	0.16	
852.74	0.17	
853.123	0.17	
853.507	0.17	
853.891	0.16	
854.274	0.17	
854.658	0.17	
855.041	0.17	
855.425	0.16	
855.808	0.16	
856.192	0.15	
856.575	0.16	
856.958	0.15	
857.341	0.16	
857.724	0.15	
858.107	0.16	
858.49	0.16	
858.873	0.15	
859.256	0.16	
859.639	0.15	
860.022	0.15	
860.404	0.15	
860.787	0.15	
861.17	0.14	
861.552	0.15	
861.935	0.14	
862.317	0.15	
862.699	0.14	
863.082	0.15	
863.464	0.14	
863.846	0.14	
864.228	0.13	
864.61	0.13	
864.992	0.13	
865.374	0.14	
865.756	0.13	
866.138	0.13	
866.52	0.13	
866.902	0.13	
867.283	0.12	
867.665	0.12	
868.046	0.12	
868.428	0.12	
868.809	0.13	
869.191	0.13	
869.572	0.14	
869.953	0.13	
870.335	0.12	
870.716	0.11	
871.097	0.12	
871.478	0.12	
871.859	0.11	
872.24	0.11	
872.621	0.11	
873.001	0.12	
873.382	0.13	
873.763	0.11	
874.143	0.11	
874.524	0.12	
874.905	0.11	
875.285	0.11	
875.665	0.12	
876.046	0.1	
876.426	0.09	
876.806	0.09	
877.186	0.11	
877.567	0.08	
877.947	0.11	
878.327	0.1	
878.707	0.1	
879.086	0.09	
879.466	0.09	
879.846	0.1	
880.226	0.1	
880.605	0.1	
880.985	0.1	
881.365	0.09	
881.744	0.1	
882.124	0.1	
882.503	0.1	
882.882	0.09	
883.261	0.09	
883.641	0.11	
884.02	0.1	
884.399	0.08	
884.778	0.09	
885.157	0.1	
885.536	0.08	
885.915	0.08	
886.293	0.11	
886.672	0.07	
887.051	0.09	
887.429	0.08	
887.808	0.09	
888.186	0.09	
888.565	0.08	
888.943	0.1	
889.322	0.07	
889.7	0.09	
890.078	0.08	
890.456	0.08	
890.834	0.1	
891.212	0.08	
891.59	0.08	
891.968	0.07	
892.346	0.1	
892.724	0.08	
893.102	0.09	
893.479	0.08	
893.857	0.1	
894.235	0.08	
894.612	0.08	
894.99	0.08	
895.367	0.07	
895.744	0.09	
896.122	0.08	
896.499	0.1	
896.876	0.1	
897.253	0.08	
897.63	0.11	
898.007	0.09	
898.384	0.1	
898.761	0.09	
899.138	0.08	
899.515	0.1	
899.891	0.09	
900.268	0.08	
900.645	0.1	
901.021	0.08	
901.398	0.09	
901.774	0.1	
902.15	0.1	
902.527	0.09	
902.903	0.1	
903.279	0.1	
903.655	0.1	
904.031	0.12	
904.407	0.09	
904.783	0.1	
905.159	0.09	
905.535	0.12	
905.911	0.11	
906.287	0.11	
906.662	0.1	
907.038	0.13	
907.413	0.1	
907.789	0.12	
908.164	0.12	
908.54	0.12	
908.915	0.11	
909.29	0.12	
909.666	0.14	
910.041	0.1	
910.416	0.12	
910.791	0.12	
911.166	0.14	
911.541	0.15	
911.916	0.13	
912.29	0.12	
912.665	0.17	
913.04	0.12	
913.414	0.13	
913.789	0.14	
914.163	0.16	
914.538	0.15	
914.912	0.16	
915.287	0.14	
915.661	0.1	
916.035	0.12	
916.409	0.15	
916.783	0.12	
917.157	0.17	
917.531	0.14	
917.905	0.15	
918.279	0.14	
918.653	0.14	
919.027	0.12	
919.4	0.15	
919.774	0.16	
920.148	0.13	
920.521	0.16	
920.895	0.12	
921.268	0.15	
921.641	0.18	
922.015	0.15	
922.388	0.15	
922.761	0.16	
923.134	0.16	
923.507	0.14	
923.88	0.16	
924.253	0.14	
924.626	0.16	
924.999	0.17	
925.372	0.15	
925.744	0.18	
926.117	0.17	
926.489	0.16	
926.862	0.18	
927.234	0.17	
927.607	0.16	
927.979	0.14	
928.352	0.19	
928.724	0.18	
929.096	0.14	
929.468	0.18	
929.84	0.15	
930.212	0.15	
930.584	0.2	
930.956	0.16	
931.328	0.15	
931.7	0.17	
932.071	0.18	
932.443	0.19	
932.814	0.15	
933.186	0.19	
933.557	0.16	
933.929	0.18	
934.3	0.23	
934.672	0.19	
935.043	0.19	
935.414	0.13	
935.785	0.19	
936.156	0.19	
936.527	0.19	
936.898	0.13	
937.269	0.18	
937.64	0.24	
938.011	0.2	
938.381	0.24	
938.752	0.2	
939.123	0.15	
939.493	0.19	
939.864	0.17	
940.234	0.22	
940.604	0.2	
940.975	0.21	
941.345	0.2	
941.715	0.2	
942.085	0.17	
942.455	0.2	
942.825	0.22	
943.195	0.18	
943.565	0.15	
943.935	0.16	
944.305	0.15	
944.675	0.15	
945.044	0.16	
945.414	0.22	
945.783	0.21	
946.153	0.25	
946.522	0.17	
946.892	0.25	
947.261	0.15	
947.63	0.13	
947.999	0.22	
948.369	0.23	
948.738	0.22	
949.107	0.23	
949.476	0.23	
949.844	0.22	
950.213	0.16	
950.582	0.18	
950.951	0.14	
951.319	0.17	
951.688	0.25	
952.057	0.18	
952.425	0.17	
952.794	0.21	
953.162	0.2	
953.53	0.16	
953.898	0.2	
954.267	0.23	
954.635	0.22	
955.003	0.23	
955.371	0.24	
955.739	0.21	
956.107	0.18	
956.475	0.2	
956.842	0.25	
957.21	0.21	
957.578	0.21	
957.945	0.21	
958.313	0.17	
958.68	0.27	
959.048	0.27	
959.415	0.28	
959.783	0.35	
960.15	0.24	
960.517	0.23	
960.884	0.25	
961.251	0.19	
961.618	0.2	
961.985	0.29	
962.352	0.27	
962.719	0.26	
963.086	0.18	
963.452	0.26	
963.819	0.18	
964.186	0.28	
964.552	0.28	
964.919	0.22	
965.285	0.39	
965.652	0.28	
966.018	0.33	
966.384	0.23	
966.75	0.18	
967.116	0.21	
967.482	0.36	
967.848	0.27	
968.214	0.27	
968.58	0.23	
968.946	0.28	
969.312	0.2	
969.678	0.25	
970.043	0.2	
970.409	0.28	
970.774	0.25	
971.14	0.17	
971.505	0.33	
971.871	0.31	
972.236	0.27	
972.601	0.28	
972.967	0.2	
973.332	0.28	
973.697	0.27	
974.062	0.29	
974.427	0.25	
974.792	0.27	
975.156	0.19	
975.521	0.26	
975.886	0.24	
976.251	0.25	
976.615	0.26	
976.98	0.29	
977.344	0.33	
977.709	0.31	
978.073	0.31	
978.437	0.22	
978.802	0.37	
979.166	0.29	
979.53	0.28	
979.894	0.13	
980.258	0.21	
980.622	0.22	
980.986	0.2	
981.35	0.28	
981.713	0.23	
982.077	0.22	
982.441	0.21	
982.804	0.23	
983.168	0.24	
983.531	0.27	
983.895	0.3	
984.258	0.24	
984.621	0.32	
984.985	0.23	
985.348	0.11	
985.711	0.25	
986.074	0.27	
986.437	0.2	
986.8	0.28	
987.163	0.21	
987.526	0.14	
987.888	0.16	
988.251	0.27	
988.614	0.22	
988.976	0.32	
989.339	0.15	
989.701	0.29	
990.064	0.2	
990.426	0.19	
990.788	0.13	
991.151	0.1	
991.513	0.19	
991.875	0.21	
992.237	0.23	
992.599	0.28	
992.961	0.23	
993.323	0.19	
993.685	0.33	
994.046	0.16	
994.408	0.21	
994.77	0.12	
995.131	0.29	
995.493	0.42	
995.854	0.16	
996.216	0.3	
996.577	0.29	
996.938	0.23	
997.299	0.25	
997.661	0.31	
998.022	0.19	
998.383	0.24	
998.744	0.14	
999.105	0.29	
999.465	0.36	
999.826	0.22	
1000.187	0.3	
1000.548	0.21	
1000.908	0.25	
1001.269	0.24	
1001.629	0.26	
1001.99	0.23	
1002.35	0.27	
1002.711	0.22	
1003.071	0.22	
1003.431	0.21	
1003.791	0.29	
1004.151	0.22	
1004.511	0.28	
1004.871	0.32	
1005.231	0.16	
1005.591	0.09	
1005.951	0.05	
1006.311	0.2	
1006.67	0.27	
1007.03	0.18	
1007.389	0.42	
1007.749	0.28	
1008.108	0.15	
1008.468	0.18	
1008.827	0.17	
1009.186	0.34	
1009.545	0.15	
1009.905	0.29	
1010.264	0.23	
1010.623	0.19	
1010.982	0.18	
1011.341	0.17	
1011.699	0.08	
1012.058	0.24	
1012.417	0.29	
1012.776	0.27	
1013.134	0.31	
1013.493	0.16	
1013.851	0.55	
1014.21	0.22	
1014.568	0.27	
1014.926	0.26	
1015.284	0.42	
1015.643	0.17	
1016.001	0.19	
1016.359	0.23	
1016.717	0.17	
1017.075	0.29	
1017.433	0.13	
1017.79	0.04	
1018.148	0.12	
1018.506	0.08	
1018.864	0.16	
1019.221	0.12	
1019.579	0.26	
1019.936	0.11	
1020.294	0.24	
1020.651	0.31	
1021.008	0.18	
1021.365	0.21	
1021.723	0.32	
1022.08	0.6	
1022.437	0.15	
1022.794	0.37	
1023.151	0.26	
1023.507	0.12	
1023.864	0.2	
1024.221	0.21	
1024.578	0.25	
1024.934	0.13	
1025.291	0.17	
1025.647	0.03	
1026.004	0.21	
1026.36	0.27	
1026.717	0.18	
1027.073	0.15	
1027.429	0.26	
1027.785	0.24	
1028.141	0.29	
1028.497	0.1	
1028.853	0.35	
1029.209	0.15	
1029.565	0.37	
1029.921	0.33	
1030.277	0.15	
1030.632	0.15	
1030.988	0.46	
1031.343	0.45	
1031.699	0.28	
1032.054	0.28	
1032.41	0.28	
