Absorbance: 0		
187.923	-0	
188.387	-0	
188.851	-0	
189.315	-2.59	
189.779	-1.6	
190.242	-1.61	
190.706	-2.59	
191.17	-0	
191.633	-0	
192.097	-0	
192.56	-1.42	
193.024	-0	
193.487	-0	
193.951	-0	
194.414	-0	
194.877	-1.76	
195.34	-1.84	
195.803	-0	
196.266	-0	
196.73	-1.75	
197.193	-2.32	
197.656	-1.35	
198.118	-0	
198.581	-1.11	
199.044	-0.66	
199.507	-0.63	
199.97	-0.56	
200.432	-0.57	
200.895	-0.63	
201.358	-0.58	
201.82	-0.61	
202.283	-0.59	
202.745	-0.58	
203.207	-0.59	
203.67	-0.59	
204.132	-0.62	
204.594	-0.62	
205.056	-0.56	
205.519	-0.58	
205.981	-0.65	
206.443	-0.62	
206.905	-0.59	
207.367	-0.61	
207.829	-0.55	
208.291	-0.62	
208.752	-0.69	
209.214	-0.59	
209.676	-0.57	
210.138	-0.55	
210.599	-0.56	
211.061	-0.59	
211.522	-0.56	
211.984	-0.59	
212.445	-0.56	
212.907	-0.66	
213.368	-0.58	
213.829	-0.57	
214.291	-0.54	
214.752	-0.56	
215.213	-0.5	
215.674	-0.49	
216.135	-0.47	
216.596	-0.43	
217.057	-0.4	
217.518	-0.4	
217.979	-0.39	
218.44	-0.34	
218.9	-0.29	
219.361	-0.27	
219.822	-0.25	
220.282	-0.25	
220.743	-0.23	
221.204	-0.23	
221.664	-0.21	
222.125	-0.21	
222.585	-0.21	
223.045	-0.16	
223.506	-0.17	
223.966	-0.18	
224.426	-0.17	
224.886	-0.16	
225.346	-0.15	
225.806	-0.14	
226.266	-0.16	
226.726	-0.15	
227.186	-0.15	
227.646	-0.13	
228.106	-0.14	
228.566	-0.13	
229.025	-0.14	
229.485	-0.14	
229.945	-0.13	
230.404	-0.13	
230.864	-0.14	
231.323	-0.15	
231.783	-0.13	
232.242	-0.13	
232.702	-0.13	
233.161	-0.12	
233.62	-0.13	
234.079	-0.14	
234.538	-0.13	
234.998	-0.12	
235.457	-0.13	
235.916	-0.12	
236.375	-0.12	
236.834	-0.13	
237.292	-0.13	
237.751	-0.11	
238.21	-0.13	
238.669	-0.12	
239.127	-0.12	
239.586	-0.12	
240.045	-0.12	
240.503	-0.11	
240.962	-0.11	
241.42	-0.11	
241.878	-0.11	
242.337	-0.11	
242.795	-0.11	
243.253	-0.1	
243.712	-0.11	
244.17	-0.11	
244.628	-0.1	
245.086	-0.11	
245.544	-0.12	
246.002	-0.11	
246.46	-0.1	
246.918	-0.1	
247.375	-0.1	
247.833	-0.09	
248.291	-0.09	
248.749	-0.09	
249.206	-0.08	
249.664	-0.1	
250.121	-0.09	
250.579	-0.09	
251.036	-0.09	
251.494	-0.09	
251.951	-0.09	
252.408	-0.08	
252.866	-0.08	
253.323	-0.08	
253.78	-0.09	
254.237	-0.09	
254.694	-0.08	
255.151	-0.08	
255.608	-0.08	
256.065	-0.08	
256.522	-0.09	
256.979	-0.08	
257.435	-0.08	
257.892	-0.08	
258.349	-0.08	
258.805	-0.08	
259.262	-0.09	
259.718	-0.08	
260.175	-0.08	
260.631	-0.08	
261.088	-0.08	
261.544	-0.08	
262	-0.07	
262.457	-0.08	
262.913	-0.07	
263.369	-0.07	
263.825	-0.08	
264.281	-0.07	
264.737	-0.08	
265.193	-0.07	
265.649	-0.08	
266.105	-0.08	
266.561	-0.08	
267.016	-0.07	
267.472	-0.08	
267.928	-0.08	
268.383	-0.07	
268.839	-0.07	
269.294	-0.07	
269.75	-0.07	
270.205	-0.07	
270.661	-0.07	
271.116	-0.07	
271.571	-0.08	
272.026	-0.07	
272.482	-0.07	
272.937	-0.08	
273.392	-0.07	
273.847	-0.06	
274.302	-0.08	
274.757	-0.08	
275.212	-0.07	
275.666	-0.07	
276.121	-0.08	
276.576	-0.07	
277.031	-0.09	
277.485	-0.09	
277.94	-0.07	
278.395	-0.08	
278.849	-0.07	
279.303	-0.07	
279.758	-0.07	
280.212	-0.08	
280.667	-0.08	
281.121	-0.07	
281.575	-0.08	
282.029	-0.07	
282.483	-0.07	
282.937	-0.08	
283.391	-0.08	
283.845	-0.07	
284.299	-0.08	
284.753	-0.08	
285.207	-0.07	
285.661	-0.08	
286.115	-0.07	
286.568	-0.08	
287.022	-0.07	
287.475	-0.07	
287.929	-0.08	
288.383	-0.07	
288.836	-0.07	
289.289	-0.07	
289.743	-0.06	
290.196	-0.08	
290.649	-0.07	
291.102	-0.07	
291.556	-0.08	
292.009	-0.08	
292.462	-0.07	
292.915	-0.07	
293.368	-0.07	
293.821	-0.07	
294.274	-0.07	
294.726	-0.08	
295.179	-0.06	
295.632	-0.07	
296.084	-0.07	
296.537	-0.08	
296.99	-0.07	
297.442	-0.07	
297.895	-0.07	
298.347	-0.08	
298.8	-0.09	
299.252	-0.06	
299.704	-0.07	
300.156	-0.07	
300.609	-0.06	
301.061	-0.07	
301.513	-0.07	
301.965	-0.07	
302.417	-0.07	
302.869	-0.07	
303.321	-0.06	
303.773	-0.08	
304.224	-0.08	
304.676	-0.07	
305.128	-0.06	
305.579	-0.07	
306.031	-0.08	
306.483	-0.06	
306.934	-0.07	
307.386	-0.06	
307.837	-0.07	
308.288	-0.07	
308.74	-0.06	
309.191	-0.07	
309.642	-0.07	
310.093	-0.07	
310.544	-0.07	
310.996	-0.06	
311.447	-0.06	
311.898	-0.07	
312.348	-0.07	
312.799	-0.07	
313.25	-0.08	
313.701	-0.07	
314.152	-0.07	
314.602	-0.07	
315.053	-0.07	
315.504	-0.07	
315.954	-0.07	
316.405	-0.07	
316.855	-0.07	
317.305	-0.08	
317.756	-0.06	
318.206	-0.06	
318.656	-0.07	
319.107	-0.07	
319.557	-0.07	
320.007	-0.08	
320.457	-0.08	
320.907	-0.07	
321.357	-0.07	
321.807	-0.08	
322.257	-0.08	
322.706	-0.07	
323.156	-0.07	
323.606	-0.08	
324.056	-0.08	
324.505	-0.08	
324.955	-0.07	
325.404	-0.08	
325.854	-0.08	
326.303	-0.08	
326.753	-0.07	
327.202	-0.08	
327.651	-0.08	
328.1	-0.08	
328.55	-0.09	
328.999	-0.09	
329.448	-0.08	
329.897	-0.08	
330.346	-0.09	
330.795	-0.08	
331.244	-0.08	
331.693	-0.08	
332.141	-0.08	
332.59	-0.09	
333.039	-0.07	
333.487	-0.09	
333.936	-0.08	
334.385	-0.08	
334.833	-0.07	
335.282	-0.08	
335.73	-0.07	
336.178	-0.09	
336.627	-0.07	
337.075	-0.08	
337.523	-0.09	
337.971	-0.08	
338.419	-0.07	
338.867	-0.08	
339.315	-0.09	
339.763	-0.08	
340.211	-0.08	
340.659	-0.09	
341.107	-0.08	
341.555	-0.08	
342.002	-0.09	
342.45	-0.08	
342.898	-0.08	
343.345	-0.07	
343.793	-0.09	
344.24	-0.08	
344.688	-0.09	
345.135	-0.08	
345.582	-0.08	
346.03	-0.08	
346.477	-0.08	
346.924	-0.09	
347.371	-0.08	
347.818	-0.08	
348.265	-0.08	
348.712	-0.09	
349.159	-0.07	
349.606	-0.08	
350.053	-0.08	
350.5	-0.08	
350.947	-0.09	
351.393	-0.09	
351.84	-0.08	
352.287	-0.08	
352.733	-0.09	
353.18	-0.09	
353.626	-0.1	
354.072	-0.09	
354.519	-0.08	
354.965	-0.1	
355.411	-0.1	
355.858	-0.09	
356.304	-0.09	
356.75	-0.08	
357.196	-0.09	
357.642	-0.09	
358.088	-0.1	
358.534	-0.08	
358.98	-0.09	
359.425	-0.09	
359.871	-0.09	
360.317	-0.09	
360.763	-0.08	
361.208	-0.09	
361.654	-0.08	
362.099	-0.09	
362.545	-0.09	
362.99	-0.09	
363.436	-0.09	
363.881	-0.09	
364.326	-0.08	
364.771	-0.09	
365.217	-0.08	
365.662	-0.07	
366.107	-0.09	
366.552	-0.09	
366.997	-0.09	
367.442	-0.09	
367.887	-0.08	
368.332	-0.08	
368.776	-0.08	
369.221	-0.09	
369.666	-0.08	
370.11	-0.09	
370.555	-0.08	
371	-0.08	
371.444	-0.09	
371.888	-0.08	
372.333	-0.08	
372.777	-0.09	
373.221	-0.07	
373.666	-0.08	
374.11	-0.07	
374.554	-0.08	
374.998	-0.08	
375.442	-0.08	
375.886	-0.08	
376.33	-0.08	
376.774	-0.07	
377.218	-0.07	
377.662	-0.07	
378.106	-0.07	
378.549	-0.07	
378.993	-0.06	
379.436	-0.07	
379.88	-0.08	
380.324	-0.07	
380.767	-0.07	
381.21	-0.08	
381.654	-0.08	
382.097	-0.08	
382.54	-0.06	
382.984	-0.07	
383.427	-0.07	
383.87	-0.07	
384.313	-0.07	
384.756	-0.07	
385.199	-0.07	
385.642	-0.07	
386.085	-0.06	
386.528	-0.06	
386.97	-0.06	
387.413	-0.05	
387.856	-0.06	
388.298	-0.07	
388.741	-0.06	
389.183	-0.06	
389.626	-0.07	
390.068	-0.06	
390.511	-0.06	
390.953	-0.07	
391.395	-0.07	
391.838	-0.06	
392.28	-0.05	
392.722	-0.06	
393.164	-0.06	
393.606	-0.06	
394.048	-0.06	
394.49	-0.06	
394.932	-0.05	
395.374	-0.06	
395.815	-0.06	
396.257	-0.06	
396.699	-0.04	
397.141	-0.06	
397.582	-0.05	
398.024	-0.05	
398.465	-0.05	
398.907	-0.05	
399.348	-0.06	
399.789	-0.05	
400.231	-0.05	
400.672	-0.07	
401.113	-0.05	
401.554	-0.05	
401.995	-0.07	
402.436	-0.06	
402.877	-0.05	
403.318	-0.05	
403.759	-0.06	
404.2	-0.05	
404.641	-0.05	
405.082	-0.05	
405.522	-0.05	
405.963	-0.05	
406.404	-0.06	
406.844	-0.04	
407.285	-0.05	
407.725	-0.05	
408.166	-0.05	
408.606	-0.05	
409.046	-0.05	
409.487	-0.06	
409.927	-0.06	
410.367	-0.06	
410.807	-0.04	
411.247	-0.04	
411.687	-0.05	
412.127	-0.05	
412.567	-0.06	
413.007	-0.06	
413.447	-0.04	
413.886	-0.05	
414.326	-0.02	
414.766	-0.04	
415.205	-0.03	
415.645	-0.04	
416.084	-0.03	
416.524	-0.05	
416.963	-0.03	
417.403	-0.03	
417.842	-0.04	
418.281	-0.04	
418.721	-0.03	
419.16	-0.03	
419.599	-0.03	
420.038	-0.02	
420.477	-0.04	
420.916	-0.03	
421.355	-0.03	
421.794	-0.03	
422.233	-0.03	
422.671	-0.02	
423.11	-0.03	
423.549	-0.03	
423.987	-0.03	
424.426	-0.03	
424.864	-0.01	
425.303	-0.03	
425.741	-0.02	
426.18	-0.02	
426.618	-0.02	
427.056	-0.03	
427.495	0	
427.933	-0.02	
428.371	-0.02	
428.809	-0.01	
429.247	-0.02	
429.685	-0.01	
430.123	-0	
430.561	-0.01	
430.999	-0.01	
431.436	-0	
431.874	-0.02	
432.312	-0	
432.749	-0.01	
433.187	-0	
433.625	0.01	
434.062	-0.01	
434.5	0.01	
434.937	0.01	
435.374	0.01	
435.812	0.02	
436.249	0.02	
436.686	0.02	
437.123	0.01	
437.56	0.02	
437.997	0.02	
438.434	0.03	
438.871	0.02	
439.308	0.03	
439.745	0.04	
440.182	0.04	
440.618	0.03	
441.055	0.03	
441.492	0.05	
441.928	0.04	
442.365	0.05	
442.801	0.05	
443.238	0.06	
443.674	0.05	
444.111	0.06	
444.547	0.06	
444.983	0.06	
445.419	0.07	
445.855	0.07	
446.292	0.07	
446.728	0.08	
447.164	0.08	
447.599	0.09	
448.035	0.08	
448.471	0.08	
448.907	0.09	
449.343	0.1	
449.778	0.09	
450.214	0.1	
450.65	0.1	
451.085	0.1	
451.521	0.11	
451.956	0.11	
452.392	0.12	
452.827	0.11	
453.262	0.11	
453.697	0.12	
454.133	0.11	
454.568	0.11	
455.003	0.12	
455.438	0.12	
455.873	0.13	
456.308	0.12	
456.743	0.13	
457.178	0.15	
457.612	0.13	
458.047	0.13	
458.482	0.14	
458.917	0.14	
459.351	0.14	
459.786	0.15	
460.22	0.15	
460.655	0.15	
461.089	0.15	
461.523	0.16	
461.958	0.16	
462.392	0.16	
462.826	0.16	
463.26	0.17	
463.694	0.16	
464.128	0.17	
464.562	0.17	
464.996	0.17	
465.43	0.18	
465.864	0.18	
466.298	0.18	
466.732	0.19	
467.165	0.19	
467.599	0.19	
468.033	0.19	
468.466	0.19	
468.9	0.19	
469.333	0.2	
469.767	0.2	
470.2	0.2	
470.633	0.19	
471.066	0.2	
471.5	0.21	
471.933	0.21	
472.366	0.22	
472.799	0.22	
473.232	0.22	
473.665	0.22	
474.098	0.22	
474.531	0.23	
474.963	0.23	
475.396	0.24	
475.829	0.23	
476.262	0.23	
476.694	0.24	
477.127	0.24	
477.559	0.25	
477.992	0.25	
478.424	0.25	
478.856	0.25	
479.289	0.24	
479.721	0.25	
480.153	0.25	
480.585	0.26	
481.017	0.26	
481.449	0.26	
481.881	0.25	
482.313	0.27	
482.745	0.27	
483.177	0.27	
483.609	0.27	
484.041	0.27	
484.472	0.27	
484.904	0.28	
485.336	0.27	
485.767	0.27	
486.199	0.28	
486.63	0.28	
487.062	0.28	
487.493	0.29	
487.924	0.28	
488.355	0.29	
488.787	0.29	
489.218	0.29	
489.649	0.29	
490.08	0.3	
490.511	0.3	
490.942	0.3	
491.373	0.3	
491.804	0.31	
492.234	0.3	
492.665	0.31	
493.096	0.3	
493.526	0.31	
493.957	0.32	
494.388	0.32	
494.818	0.32	
495.249	0.32	
495.679	0.33	
496.109	0.33	
496.54	0.33	
496.97	0.33	
497.4	0.33	
497.83	0.33	
498.26	0.34	
498.69	0.34	
499.12	0.34	
499.55	0.33	
499.98	0.34	
500.41	0.35	
500.84	0.35	
501.269	0.35	
501.699	0.35	
502.129	0.36	
502.558	0.35	
502.988	0.36	
503.417	0.35	
503.847	0.36	
504.276	0.36	
504.706	0.37	
505.135	0.36	
505.564	0.37	
505.993	0.36	
506.422	0.38	
506.851	0.37	
507.28	0.38	
507.709	0.38	
508.138	0.37	
508.567	0.37	
508.996	0.38	
509.425	0.38	
509.854	0.39	
510.282	0.38	
510.711	0.38	
511.14	0.38	
511.568	0.38	
511.997	0.39	
512.425	0.38	
512.853	0.39	
513.282	0.38	
513.71	0.38	
514.138	0.38	
514.566	0.38	
514.994	0.37	
515.423	0.38	
515.851	0.37	
516.279	0.38	
516.706	0.38	
517.134	0.38	
517.562	0.38	
517.99	0.38	
518.418	0.38	
518.845	0.36	
519.273	0.37	
519.701	0.36	
520.128	0.37	
520.556	0.36	
520.983	0.36	
521.41	0.36	
521.838	0.36	
522.265	0.36	
522.692	0.35	
523.119	0.35	
523.546	0.35	
523.973	0.35	
524.4	0.35	
524.827	0.35	
525.254	0.35	
525.681	0.34	
526.108	0.34	
526.535	0.34	
526.962	0.33	
527.388	0.33	
527.815	0.34	
528.241	0.34	
528.668	0.33	
529.094	0.32	
529.521	0.32	
529.947	0.32	
530.373	0.32	
530.8	0.31	
531.226	0.31	
531.652	0.31	
532.078	0.3	
532.504	0.3	
532.93	0.3	
533.356	0.29	
533.782	0.28	
534.208	0.29	
534.634	0.29	
535.059	0.29	
535.485	0.28	
535.911	0.28	
536.336	0.27	
536.762	0.26	
537.187	0.27	
537.613	0.26	
538.038	0.26	
538.464	0.26	
538.889	0.25	
539.314	0.25	
539.739	0.25	
540.164	0.24	
540.59	0.24	
541.015	0.23	
541.44	0.24	
541.865	0.23	
542.289	0.22	
542.714	0.22	
543.139	0.21	
543.564	0.22	
543.988	0.21	
544.413	0.2	
544.838	0.2	
545.262	0.2	
545.687	0.2	
546.111	0.19	
546.535	0.19	
546.96	0.19	
547.384	0.18	
547.808	0.17	
548.233	0.17	
548.657	0.17	
549.081	0.16	
549.505	0.17	
549.929	0.16	
550.353	0.16	
550.776	0.16	
551.2	0.16	
551.624	0.15	
552.048	0.14	
552.471	0.14	
552.895	0.14	
553.319	0.14	
553.742	0.13	
554.166	0.13	
554.589	0.14	
555.012	0.13	
555.436	0.12	
555.859	0.12	
556.282	0.12	
556.705	0.12	
557.128	0.11	
557.552	0.11	
557.975	0.1	
558.398	0.1	
558.82	0.1	
559.243	0.1	
559.666	0.1	
560.089	0.09	
560.512	0.09	
560.934	0.09	
561.357	0.09	
561.779	0.09	
562.202	0.09	
562.624	0.08	
563.047	0.07	
563.469	0.08	
563.891	0.08	
564.314	0.07	
564.736	0.07	
565.158	0.07	
565.58	0.07	
566.002	0.07	
566.424	0.06	
566.846	0.06	
567.268	0.06	
567.69	0.05	
568.111	0.05	
568.533	0.06	
568.955	0.05	
569.377	0.05	
569.798	0.05	
570.22	0.04	
570.641	0.05	
571.063	0.04	
571.484	0.04	
571.905	0.04	
572.327	0.04	
572.748	0.03	
573.169	0.03	
573.59	0.03	
574.011	0.03	
574.432	0.03	
574.853	0.02	
575.274	0.03	
575.695	0.03	
576.116	0.02	
576.536	0.02	
576.957	0.02	
577.378	0.02	
577.798	0.02	
578.219	0.02	
578.64	0.02	
579.06	0.02	
579.48	0.02	
579.901	0.02	
580.321	0.02	
580.741	0.02	
581.161	0.02	
581.582	0.02	
582.002	0.02	
582.422	0.02	
582.842	0.01	
583.262	0.02	
583.682	0.02	
584.101	0.01	
584.521	0.01	
584.941	0.01	
585.361	0.01	
585.78	0.01	
586.2	0.01	
586.619	0.01	
587.039	0.01	
587.458	0.01	
587.878	0.01	
588.297	0.01	
588.716	0.01	
589.136	0.01	
589.555	0.01	
589.974	0.01	
590.393	0	
590.812	0.01	
591.231	0.01	
591.65	0.01	
592.069	0	
592.488	0.01	
592.906	0	
593.325	0.01	
593.744	0.01	
594.162	0	
594.581	0	
594.999	0	
595.418	0	
595.836	0	
596.255	0	
596.673	0	
597.091	0	
597.509	0	
597.928	0	
598.346	0	
598.764	0	
599.182	-0	
599.6	-0	
600.018	-0	
600.435	-0	
600.853	-0	
601.271	-0	
601.689	-0	
602.106	-0	
602.524	-0	
602.941	-0	
603.359	-0	
603.776	-0	
604.194	-0	
604.611	-0	
605.028	-0	
605.446	-0	
605.863	-0	
606.28	-0	
606.697	0	
607.114	-0	
607.531	-0	
607.948	-0	
608.365	-0	
608.782	-0	
609.198	-0	
609.615	-0	
610.032	-0	
610.448	-0	
610.865	-0	
611.281	0	
611.698	-0	
612.114	-0	
612.531	-0	
612.947	-0	
613.363	0	
613.779	-0	
614.196	-0	
614.612	-0	
615.028	0	
615.444	-0	
615.86	0	
616.276	-0	
616.691	0	
617.107	-0	
617.523	0	
617.939	0	
618.354	0	
618.77	0	
619.185	0	
619.601	-0	
620.016	-0	
620.432	-0	
620.847	0	
621.262	-0	
621.677	0	
622.093	-0	
622.508	0	
622.923	0	
623.338	-0	
623.753	-0	
624.168	-0	
624.583	-0	
624.997	0	
625.412	0	
625.827	0	
626.242	0	
626.656	-0	
627.071	0	
627.485	0	
627.9	-0	
628.314	0	
628.728	-0	
629.143	0	
629.557	-0	
629.971	0	
630.385	0	
630.799	0	
631.213	0	
631.627	0	
632.041	0	
632.455	0	
632.869	0	
633.283	0	
633.697	0	
634.11	-0	
634.524	0	
634.937	0	
635.351	0	
635.764	0	
636.178	0	
636.591	0	
637.004	-0	
637.418	0	
637.831	-0	
638.244	0	
638.657	0	
639.07	0	
639.483	0	
639.896	-0	
640.309	-0	
640.722	-0	
641.135	-0	
641.547	-0	
641.96	0	
642.373	-0	
642.785	-0	
643.198	-0	
643.61	0	
644.023	-0	
644.435	0	
644.848	-0	
645.26	-0	
645.672	-0	
646.084	0	
646.496	-0	
646.908	-0	
647.32	-0	
647.732	-0	
648.144	0	
648.556	-0	
648.968	-0	
649.38	-0	
649.791	-0	
650.203	-0	
650.615	-0	
651.026	-0	
651.438	-0	
651.849	-0	
652.261	-0	
652.672	-0	
653.083	-0	
653.495	-0	
653.906	-0	
654.317	-0	
654.728	-0	
655.139	-0	
655.55	-0	
655.961	-0.01	
656.372	-0	
656.783	-0	
657.193	-0.01	
657.604	-0	
658.015	-0.01	
658.425	-0.01	
658.836	-0.01	
659.246	-0.01	
659.657	-0.01	
660.067	-0	
660.478	-0.01	
660.888	-0	
661.298	-0	
661.708	-0	
662.119	-0	
662.529	-0	
662.939	-0.01	
663.349	-0	
663.759	-0.01	
664.169	-0	
664.578	-0	
664.988	-0	
665.398	-0.01	
665.808	-0.01	
666.217	-0.01	
666.627	-0	
667.036	-0.01	
667.446	-0	
667.855	-0	
668.265	-0.01	
668.674	-0	
669.083	-0.01	
669.492	-0	
669.902	-0.01	
670.311	-0.01	
670.72	-0.01	
671.129	-0.01	
671.538	-0.01	
671.947	-0.01	
672.355	-0.01	
672.764	-0.01	
673.173	-0	
673.582	-0.01	
673.99	-0.01	
674.399	-0.01	
674.807	-0	
675.216	-0	
675.624	-0.01	
676.033	-0	
676.441	-0.01	
676.849	-0.01	
677.258	-0.01	
677.666	-0.01	
678.074	-0.01	
678.482	-0	
678.89	-0.01	
679.298	-0.01	
679.706	-0.01	
680.114	-0.01	
680.522	-0.01	
680.929	-0.01	
681.337	-0.01	
681.745	-0.01	
682.152	-0.01	
682.56	-0.01	
682.967	-0.01	
683.375	-0.01	
683.782	-0.01	
684.189	-0.01	
684.597	-0.01	
685.004	-0.01	
685.411	-0.01	
685.818	-0.01	
686.225	-0.01	
686.632	-0.01	
687.039	-0.01	
687.446	-0	
687.853	-0.01	
688.26	-0.01	
688.667	-0.01	
689.073	-0.01	
689.48	-0.01	
689.887	-0.01	
690.293	-0.01	
690.7	-0.01	
691.106	-0.01	
691.513	-0.01	
691.919	-0.01	
692.325	-0.01	
692.732	-0.01	
693.138	-0.01	
693.544	-0.01	
693.95	-0.01	
694.356	-0.01	
694.762	-0.01	
695.168	-0.02	
695.574	-0.01	
695.98	-0.01	
696.385	-0.01	
696.791	-0.01	
697.197	-0.01	
697.602	-0.01	
698.008	-0.01	
698.413	-0.01	
698.819	-0.01	
699.224	-0.01	
699.63	-0.01	
700.035	-0.01	
700.44	-0.01	
700.845	-0.01	
701.251	-0.01	
701.656	-0.01	
702.061	-0.01	
702.466	-0.02	
702.871	-0.01	
703.275	-0.01	
703.68	-0.01	
704.085	-0.02	
704.49	-0.01	
704.894	-0.01	
705.299	-0.01	
705.704	-0.01	
706.108	-0.01	
706.513	-0.01	
706.917	-0.01	
707.321	-0.01	
707.726	-0.01	
708.13	-0.01	
708.534	-0.01	
708.938	-0.01	
709.342	-0.01	
709.746	-0.02	
710.15	-0.01	
710.554	-0.01	
710.958	-0.01	
711.362	-0.01	
711.766	-0.01	
712.17	-0.01	
712.573	-0.01	
712.977	-0.01	
713.38	-0.02	
713.784	-0.01	
714.187	-0.01	
714.591	-0.01	
714.994	-0.01	
715.397	-0.02	
715.801	-0.01	
716.204	-0.01	
716.607	-0.01	
717.01	-0.01	
717.413	-0.01	
717.816	-0.01	
718.219	-0.02	
718.622	-0.01	
719.025	-0.01	
719.428	-0.01	
719.83	-0.02	
720.233	-0.01	
720.636	-0.01	
721.038	-0.02	
721.441	-0.01	
721.843	-0.01	
722.246	-0.01	
722.648	-0.01	
723.05	-0.01	
723.453	-0.02	
723.855	-0.01	
724.257	-0.02	
724.659	-0.01	
725.061	-0.02	
725.463	-0.02	
725.865	-0.01	
726.267	-0.02	
726.669	-0.01	
727.07	-0.02	
727.472	-0.01	
727.874	-0.01	
728.276	-0.01	
728.677	-0.02	
729.079	-0.01	
729.48	-0.02	
729.881	-0.01	
730.283	-0.02	
730.684	-0.01	
731.085	-0.02	
731.487	-0.01	
731.888	-0.02	
732.289	-0.02	
732.69	-0.01	
733.091	-0.01	
733.492	-0.01	
733.893	-0.01	
734.294	-0.02	
734.694	-0.02	
735.095	-0.02	
735.496	-0.01	
735.896	-0.01	
736.297	-0.02	
736.697	-0.02	
737.098	-0.02	
737.498	-0.01	
737.899	-0.02	
738.299	-0.02	
738.699	-0.01	
739.099	-0.02	
739.5	-0.02	
739.9	-0.01	
740.3	-0.02	
740.7	-0.01	
741.1	-0.02	
741.5	-0.02	
741.899	-0.01	
742.299	-0.01	
742.699	-0.02	
743.099	-0.01	
743.498	-0.01	
743.898	-0.02	
744.297	-0.02	
744.697	-0.02	
745.096	-0.01	
745.495	-0.01	
745.895	-0.01	
746.294	-0.01	
746.693	-0.01	
747.092	-0.01	
747.491	-0.01	
747.89	-0.01	
748.289	-0.02	
748.688	-0.01	
749.087	-0.01	
749.486	-0.01	
749.885	-0.02	
750.284	-0.02	
750.682	-0.02	
751.081	-0.02	
751.479	-0.02	
751.878	-0.02	
752.276	-0.02	
752.675	-0.01	
753.073	-0.02	
753.471	-0.02	
753.87	-0.02	
754.268	-0.02	
754.666	-0.01	
755.064	-0.02	
755.462	-0.02	
755.86	-0.02	
756.258	-0.01	
756.656	-0.02	
757.054	-0.02	
757.452	-0.02	
757.849	-0.02	
758.247	-0.02	
758.645	-0.01	
759.042	-0.02	
759.44	-0.02	
759.837	-0.01	
760.234	-0.02	
760.632	-0.01	
761.029	-0.02	
761.426	-0.01	
761.823	-0.01	
762.221	-0.02	
762.618	-0.02	
763.015	-0.02	
763.412	-0.02	
763.809	-0.02	
764.205	-0.02	
764.602	-0.02	
764.999	-0.02	
765.396	-0.02	
765.792	-0.02	
766.189	-0.02	
766.586	-0.02	
766.982	-0.02	
767.378	-0.02	
767.775	-0.02	
768.171	-0.01	
768.567	-0.02	
768.964	-0.02	
769.36	-0.02	
769.756	-0.02	
770.152	-0.01	
770.548	-0.02	
770.944	-0.01	
771.34	-0.02	
771.736	-0.02	
772.132	-0.02	
772.527	-0.02	
772.923	-0.02	
773.319	-0.02	
773.714	-0.02	
774.11	-0.02	
774.505	-0.02	
774.901	-0.02	
775.296	-0.02	
775.691	-0.02	
776.087	-0.02	
776.482	-0.02	
776.877	-0.01	
777.272	-0.02	
777.667	-0.01	
778.062	-0.01	
778.457	-0.02	
778.852	-0.02	
779.247	-0.01	
779.642	-0.02	
780.037	-0.01	
780.431	-0.02	
780.826	-0.01	
781.22	-0.02	
781.615	-0.02	
782.009	-0.02	
782.404	-0.02	
782.798	-0.01	
783.193	-0.02	
783.587	-0.02	
783.981	-0.02	
784.375	-0.01	
784.769	-0.02	
785.163	-0.02	
785.557	-0.02	
785.951	-0.01	
786.345	-0.01	
786.739	-0.02	
787.133	-0.02	
787.527	-0.01	
787.92	-0.01	
788.314	-0.02	
788.707	-0.02	
789.101	-0.02	
789.494	-0.02	
789.888	-0.02	
790.281	-0.02	
790.674	-0.02	
791.068	-0.02	
791.461	-0.02	
791.854	-0.02	
792.247	-0.02	
792.64	-0.02	
793.033	-0.02	
793.426	-0.02	
793.819	-0.01	
794.212	-0.02	
794.605	-0.02	
794.997	-0.02	
795.39	-0.01	
795.782	-0.01	
796.175	-0.02	
796.568	-0.02	
796.96	-0.02	
797.352	-0.02	
797.745	-0.02	
798.137	-0.02	
798.529	-0.02	
798.921	-0.01	
799.314	-0.02	
799.706	-0.01	
800.098	-0.02	
800.49	-0.02	
800.882	-0.02	
801.273	-0.01	
801.665	-0.02	
802.057	-0.02	
802.449	-0.02	
802.84	-0.02	
803.232	-0.02	
803.623	-0.02	
804.015	-0.03	
804.406	-0.02	
804.798	-0.02	
805.189	-0.02	
805.58	-0.02	
805.972	-0.02	
806.363	-0.02	
806.754	-0.02	
807.145	-0.02	
807.536	-0.03	
807.927	-0.02	
808.318	-0.02	
808.709	-0.02	
809.099	-0.02	
809.49	-0.01	
809.881	-0.01	
810.271	-0.02	
810.662	-0.02	
811.053	-0.02	
811.443	-0.02	
811.833	-0.02	
812.224	-0.02	
812.614	-0.02	
813.004	-0.01	
813.395	-0.02	
813.785	-0.02	
814.175	-0.02	
814.565	-0.02	
814.955	-0.02	
815.345	-0.02	
815.735	-0.01	
816.124	-0.02	
816.514	-0.02	
816.904	-0.02	
817.294	-0.02	
817.683	-0.01	
818.073	-0.02	
818.462	-0.02	
818.852	-0.02	
819.241	-0.02	
819.63	-0.01	
820.02	-0.01	
820.409	-0.01	
820.798	-0.01	
821.187	-0.01	
821.576	-0.02	
821.965	-0.01	
822.354	-0.02	
822.743	-0.01	
823.132	-0.03	
823.521	-0.02	
823.91	-0.02	
824.298	-0.02	
824.687	-0.02	
825.076	-0.02	
825.464	-0.02	
825.853	-0.01	
826.241	-0.02	
826.629	-0.02	
827.018	-0.03	
827.406	-0.02	
827.794	-0.02	
828.182	-0.02	
828.571	-0.02	
828.959	-0.01	
829.347	-0.01	
829.735	-0.02	
830.122	-0.02	
830.51	-0.01	
830.898	-0.03	
831.286	-0.02	
831.673	-0.02	
832.061	-0.02	
832.449	-0.03	
832.836	-0.02	
833.224	-0.02	
833.611	-0.01	
833.998	-0.02	
834.386	-0.02	
834.773	-0.02	
835.16	-0.03	
835.547	-0.02	
835.934	-0.02	
836.321	-0.01	
836.708	-0.02	
837.095	-0.02	
837.482	-0.02	
837.869	-0.02	
838.256	-0.02	
838.642	-0.02	
839.029	-0.01	
839.416	-0.01	
839.802	-0.02	
840.189	-0.02	
840.575	-0.02	
840.962	-0.02	
841.348	-0.03	
841.734	-0.02	
842.12	-0.02	
842.507	-0.02	
842.893	-0.02	
843.279	-0.02	
843.665	-0.02	
844.051	-0.02	
844.437	-0.02	
844.822	-0.02	
845.208	-0.03	
845.594	-0.02	
845.98	-0.02	
846.365	-0.03	
846.751	-0.03	
847.136	-0.03	
847.522	-0.02	
847.907	-0.03	
848.293	-0.02	
848.678	-0.02	
849.063	-0.02	
849.448	-0.03	
849.834	-0.03	
850.219	-0.02	
850.604	-0.02	
850.989	-0.02	
851.374	-0.03	
851.758	-0.02	
852.143	-0.03	
852.528	-0.03	
852.913	-0.02	
853.297	-0.03	
853.682	-0.02	
854.067	-0.03	
854.451	-0.02	
854.836	-0.02	
855.22	-0.03	
855.604	-0.03	
855.989	-0.03	
856.373	-0.04	
856.757	-0.02	
857.141	-0.02	
857.525	-0.03	
857.909	-0.02	
858.293	-0.03	
858.677	-0.03	
859.061	-0.03	
859.445	-0.03	
859.828	-0.03	
860.212	-0.02	
860.596	-0.03	
860.979	-0.03	
861.363	-0.02	
861.746	-0.03	
862.13	-0.03	
862.513	-0.02	
862.896	-0.03	
863.28	-0.04	
863.663	-0.03	
864.046	-0.04	
864.429	-0.03	
864.812	-0.04	
865.195	-0.03	
865.578	-0.02	
865.961	-0.03	
866.344	-0.04	
866.726	-0.03	
867.109	-0.02	
867.492	-0.03	
867.874	-0.03	
868.257	-0.04	
868.639	-0.03	
869.022	-0.03	
869.404	-0.03	
869.787	-0.03	
870.169	-0.03	
870.551	-0.03	
870.933	-0.04	
871.315	-0.03	
871.697	-0.03	
872.079	-0.03	
872.461	-0.04	
872.843	-0.03	
873.225	-0.04	
873.607	-0.04	
873.989	-0.04	
874.37	-0.04	
874.752	-0.04	
875.134	-0.03	
875.515	-0.03	
875.896	-0.04	
876.278	-0.03	
876.659	-0.03	
877.041	-0.04	
877.422	-0.04	
877.803	-0.03	
878.184	-0.03	
878.565	-0.04	
878.946	-0.03	
879.327	-0.04	
879.708	-0.04	
880.089	-0.03	
880.47	-0.03	
880.851	-0.03	
881.231	-0.02	
881.612	-0.02	
881.993	-0.02	
882.373	-0.02	
882.754	-0.03	
883.134	-0.03	
883.514	-0.03	
883.895	-0.03	
884.275	-0.03	
884.655	-0.02	
885.035	-0.02	
885.415	-0.03	
885.795	-0.02	
886.175	-0.01	
886.555	-0.02	
886.935	-0.01	
887.315	-0.02	
887.695	-0.02	
888.075	-0.01	
888.454	-0.02	
888.834	-0.01	
889.213	-0.02	
889.593	-0.02	
889.972	-0.01	
890.352	-0.02	
890.731	-0.01	
891.11	-0.01	
891.49	-0.01	
891.869	-0.01	
892.248	-0.02	
892.627	-0.01	
893.006	-0.01	
893.385	-0.02	
893.764	-0.01	
894.143	-0.02	
894.522	-0.01	
894.9	-0.02	
895.279	-0.01	
895.658	-0.02	
896.036	-0.01	
896.415	-0.01	
896.793	-0.01	
897.172	-0.02	
897.55	-0.02	
897.928	-0.02	
898.307	-0.01	
898.685	-0.01	
899.063	-0.02	
899.441	-0.03	
899.819	-0.01	
900.197	-0.01	
900.575	-0.03	
900.953	-0.02	
901.331	-0.02	
901.708	-0.01	
902.086	-0.03	
902.464	-0.02	
902.841	-0.03	
903.219	-0.02	
903.596	-0.03	
903.974	-0.02	
904.351	-0.04	
904.729	-0.02	
905.106	-0.03	
905.483	-0.03	
905.86	-0.03	
906.237	-0.02	
906.614	-0.03	
906.991	-0.03	
907.368	-0.04	
907.745	-0.03	
908.122	-0.03	
908.499	-0.04	
908.875	-0.03	
909.252	-0.03	
909.629	-0.03	
910.005	-0.04	
910.382	-0.05	
910.758	-0.04	
911.135	-0.05	
911.511	-0.05	
911.887	-0.04	
912.264	-0.04	
912.64	-0.05	
913.016	-0.04	
913.392	-0.04	
913.768	-0.05	
914.144	-0.05	
914.52	-0.03	
914.896	-0.06	
915.271	-0.04	
915.647	-0.05	
916.023	-0.05	
916.398	-0.06	
916.774	-0.05	
917.15	-0.05	
917.525	-0.07	
917.9	-0.06	
918.276	-0.05	
918.651	-0.06	
919.026	-0.06	
919.402	-0.06	
919.777	-0.07	
920.152	-0.06	
920.527	-0.06	
920.902	-0.08	
921.277	-0.08	
921.652	-0.09	
922.026	-0.07	
922.401	-0.07	
922.776	-0.09	
923.15	-0.06	
923.525	-0.09	
923.9	-0.08	
924.274	-0.08	
924.648	-0.09	
925.023	-0.09	
925.397	-0.09	
925.771	-0.1	
926.146	-0.1	
926.52	-0.1	
926.894	-0.1	
927.268	-0.1	
927.642	-0.1	
928.016	-0.1	
928.39	-0.12	
928.764	-0.12	
929.137	-0.12	
929.511	-0.13	
929.885	-0.11	
930.258	-0.11	
930.632	-0.11	
931.005	-0.13	
931.379	-0.15	
931.752	-0.15	
932.125	-0.13	
932.499	-0.13	
932.872	-0.15	
933.245	-0.15	
933.618	-0.14	
933.991	-0.15	
934.364	-0.16	
934.737	-0.16	
935.11	-0.15	
935.483	-0.17	
935.856	-0.17	
936.228	-0.17	
936.601	-0.18	
936.974	-0.19	
937.346	-0.19	
937.719	-0.2	
938.091	-0.2	
938.464	-0.19	
938.836	-0.21	
939.208	-0.2	
939.58	-0.19	
939.953	-0.21	
940.325	-0.22	
940.697	-0.21	
941.069	-0.2	
941.441	-0.22	
941.813	-0.2	
942.184	-0.22	
942.556	-0.23	
942.928	-0.23	
943.3	-0.22	
943.671	-0.23	
944.043	-0.24	
944.414	-0.22	
944.786	-0.25	
945.157	-0.23	
945.529	-0.24	
945.9	-0.23	
946.271	-0.25	
946.642	-0.28	
947.013	-0.26	
947.384	-0.26	
947.756	-0.28	
948.126	-0.26	
948.497	-0.29	
948.868	-0.28	
949.239	-0.29	
949.61	-0.31	
949.98	-0.31	
950.351	-0.32	
950.722	-0.29	
951.092	-0.29	
951.463	-0.3	
951.833	-0.33	
952.203	-0.31	
952.574	-0.31	
952.944	-0.32	
953.314	-0.35	
953.684	-0.33	
954.054	-0.33	
954.424	-0.31	
954.794	-0.34	
955.164	-0.33	
955.534	-0.33	
955.904	-0.36	
956.274	-0.33	
956.643	-0.35	
957.013	-0.36	
957.383	-0.38	
957.752	-0.36	
958.122	-0.39	
958.491	-0.38	
958.86	-0.36	
959.23	-0.39	
959.599	-0.38	
959.968	-0.38	
960.337	-0.4	
960.706	-0.36	
961.075	-0.44	
961.444	-0.42	
961.813	-0.4	
962.182	-0.41	
962.551	-0.39	
962.92	-0.42	
963.288	-0.39	
963.657	-0.41	
964.026	-0.41	
964.394	-0.43	
964.763	-0.43	
965.131	-0.44	
965.499	-0.48	
965.868	-0.45	
966.236	-0.41	
966.604	-0.44	
966.972	-0.43	
967.34	-0.4	
967.708	-0.4	
968.076	-0.42	
968.444	-0.47	
968.812	-0.48	
969.18	-0.45	
969.548	-0.41	
969.915	-0.43	
970.283	-0.47	
970.651	-0.48	
971.018	-0.49	
971.386	-0.47	
971.753	-0.45	
972.121	-0.48	
972.488	-0.49	
972.855	-0.49	
973.222	-0.47	
973.589	-0.46	
973.957	-0.5	
974.324	-0.47	
974.691	-0.51	
975.057	-0.5	
975.424	-0.46	
975.791	-0.51	
976.158	-0.49	
976.525	-0.53	
976.891	-0.53	
977.258	-0.54	
977.624	-0.52	
977.991	-0.52	
978.357	-0.57	
978.724	-0.55	
979.09	-0.5	
979.456	-0.51	
979.822	-0.55	
980.189	-0.55	
980.555	-0.55	
980.921	-0.55	
981.287	-0.53	
981.653	-0.52	
982.019	-0.57	
982.384	-0.58	
982.75	-0.53	
983.116	-0.58	
983.481	-0.55	
983.847	-0.56	
984.213	-0.57	
984.578	-0.59	
984.944	-0.52	
985.309	-0.57	
985.674	-0.58	
986.039	-0.57	
986.405	-0.59	
986.77	-0.57	
987.135	-0.57	
987.5	-0.67	
987.865	-0.59	
988.23	-0.63	
988.595	-0.68	
988.96	-0.56	
989.324	-0.65	
989.689	-0.66	
990.054	-0.59	
990.418	-0.66	
990.783	-0.61	
991.147	-0.64	
991.512	-0.63	
991.876	-0.64	
992.24	-0.69	
992.605	-0.7	
992.969	-0.66	
993.333	-0.68	
993.697	-0.6	
994.061	-0.59	
994.425	-0.69	
994.789	-0.66	
995.153	-0.72	
995.517	-0.66	
995.881	-0.73	
996.244	-0.7	
996.608	-0.68	
996.971	-0.73	
997.335	-0.66	
997.698	-0.67	
998.062	-0.72	
998.425	-0.71	
998.789	-0.67	
999.152	-0.74	
999.515	-0.76	
999.878	-0.7	
1000.241	-0.69	
1000.604	-0.77	
1000.967	-0.69	
1001.33	-0.78	
1001.693	-0.72	
1002.056	-0.75	
1002.419	-0.82	
1002.781	-0.75	
1003.144	-0.78	
1003.507	-0.75	
1003.869	-0.75	
1004.232	-0.77	
1004.594	-0.66	
1004.956	-0.75	
1005.319	-0.72	
1005.681	-0.81	
1006.043	-0.75	
1006.405	-0.7	
1006.767	-0.82	
1007.129	-0.8	
1007.491	-0.8	
1007.853	-0.88	
1008.215	-0.88	
1008.577	-0.76	
1008.939	-0.8	
1009.3	-0.87	
1009.662	-0.87	
1010.024	-0.88	
1010.385	-0.82	
1010.747	-0.77	
1011.108	-0.92	
1011.469	-0.82	
1011.831	-0.88	
1012.192	-0.86	
1012.553	-0.78	
1012.914	-0.84	
1013.275	-0.8	
1013.636	-0.81	
1013.997	-0.75	
1014.358	-1.01	
1014.719	-0.97	
1015.08	-0.96	
1015.441	-0.95	
1015.801	-0.86	
1016.162	-0.83	
1016.523	-0.86	
1016.883	-0.92	
1017.244	-0.87	
1017.604	-0.85	
1017.964	-0.84	
1018.325	-0.88	
1018.685	-1	
1019.045	-1.04	
1019.405	-0.97	
1019.765	-0.94	
1020.125	-0.92	
1020.485	-0.93	
1020.845	-0.95	
1021.205	-0.9	
1021.565	-0.82	
1021.925	-0.94	
1022.284	-0.89	
1022.644	-0.92	
1023.004	-0.87	
1023.363	-0.97	
1023.723	-1.05	
1024.082	-0.97	
1024.441	-1	
1024.801	-0.92	
1025.16	-0.93	
1025.519	-1.11	
1025.878	-0.86	
1026.237	-1.14	
1026.596	-0.99	
1026.955	-1.01	
1027.314	-0.9	
1027.673	-0.96	
1028.032	-0.96	
1028.39	-0.86	
1028.749	-1.03	
1029.108	-0.95	
1029.466	-1.06	
1029.825	-1.08	
1030.183	-0.99	
1030.542	-1.03	
1030.9	-0.91	
1031.258	-1.17	
1031.616	-0.92	
1031.975	-0.92	
1032.333	-0.92	
